Time;AccX;AccY;AccZ;GyX;GyY;GyZ

19,63910,0852;-0,1047;-0,0974;-5,15;6,92;1,47
19,648830,0852;-0,1047;-0,0974;-5,15;6,92;1,47
19,657230,0852;-0,1047;-0,0974;-5,15;6,92;1,47
19,666060,0586;-0,0222;0,0251;-5,8;1,6;0,76
19,675550,0586;-0,0222;0,0251;-5,8;1,6;0,76
19,684130,0142;0,0039;-0,0076;-5,02;3,87;2,58
19,692590,0142;0,0039;-0,0076;-5,02;3,87;2,58
19,701980,0493;0,0088;-0,0256;-6,67;2,85;1,23
19,711950,0493;0,0088;-0,0256;-6,67;2,85;1,23
19,72014-0,0083;0,0098;-0,0039;-5,34;2,76;1,71
19,72849-0,0083;0,0098;-0,0039;-5,34;2,76;1,71
19,73661-0,0083;0,0098;-0,0039;-5,34;2,76;1,71
19,74450,0059;0,0156;-0,0356;-6,5;3,01;0,6
19,752410,0059;0,0156;-0,0356;-6,5;3,01;0,6
19,760520,0059;0,0156;-0,0356;-6,5;3,01;0,6
19,76850,0212;0,0076;-0,0046;-6,47;2,82;1,54
19,776970,0212;0,0076;-0,0046;-6,47;2,82;1,54
19,785080,0312;0,0039;0;-6,1;2,77;1,5
19,793140,0312;0,0039;0;-6,1;2,77;1,5
19,801150,0315;-0,0039;-0,0056;-6,02;2,85;1,66
19,809180,0315;-0,0039;-0,0056;-6,02;2,85;1,66
19,817680,0315;-0,0039;-0,0056;-6,02;2,85;1,66
19,826380,0242;0,0034;0,0002;-6,11;2,87;1,53
19,834740,0312;-0,0007;-0,0073;-6,03;3,18;1,8
19,844020,0312;-0,0007;-0,0073;-6,03;3,18;1,8
19,852950,0312;-0,0007;-0,0073;-6,03;3,18;1,8
19,861510,0291;0,0005;-0,0115;-6,23;2,91;1,75
19,87080,0291;0,0005;-0,0115;-6,23;2,91;1,75
19,880430,0244;0,0039;-0,0061;-6,13;2,95;1,72
19,88860,0244;0,0039;-0,0061;-6,13;2,95;1,72
19,897840,0244;0,0039;-0,0061;-6,13;2,95;1,72
19,906980,0242;0,0063;-0,0107;-6,15;2,87;1,62
19,9180,0242;0,0063;-0,0107;-6,15;2,87;1,62
19,927850,0254;0,0049;0,0081;-6,15;2,85;1,62
19,938350,0222;0,001;-0,0098;-6,15;2,9;1,81
19,949020,0222;0,001;-0,0098;-6,15;2,9;1,81
19,960020,0325;0,0071;-0,0017;-6,04;2,86;1,6
19,970580,0325;0,0071;-0,0017;-6,04;2,86;1,6
19,983790,0293;0,0012;-0,0015;-6;2,78;1,71
19,997570,0293;0,0012;-0,0015;-6;2,78;1,71
20,016160,0298;0,0029;-0,0066;-6,07;2,85;1,62
20,027410,0298;0,0029;-0,0066;-6,07;2,85;1,62
20,037920,0298;0,0029;-0,0066;-6,07;2,85;1,62
20,047830,0251;0,0017;0,0085;-6,03;3,04;1,67
20,056930,0251;0,0017;0,0085;-6,03;3,04;1,67
20,066540,0251;0,0017;0,0085;-6,03;3,04;1,67
20,076410,0276;0,0032;-0,0049;-5,94;2,77;1,63
20,086170,0308;0,0083;0,0039;-6,09;2,89;1,6
20,095280,0308;0,0083;0,0039;-6,09;2,89;1,6
20,104030,0295;0,0027;-0,0017;-5,99;2,9;1,6
20,112330,0295;0,0027;-0,0017;-5,99;2,9;1,6
20,122860,0264;-0,0029;-0,0027;-6,08;2,76;1,5
20,131810,0264;-0,0029;-0,0027;-6,08;2,76;1,5
20,141560,0266;0,0049;-0,0015;-6,05;2,97;1,65
20,15060,0266;0,0049;-0,0015;-6,05;2,97;1,65
20,159980,0317;0,0015;-0,0159;-6,12;3,03;1,56
20,16920,0317;0,0015;-0,0159;-6,12;3,03;1,56
20,178350,0308;0,0042;-0,0046;-6,26;2,74;1,56
20,187580,0308;0,0042;-0,0046;-6,26;2,74;1,56
20,197180,0308;0,0042;-0,0046;-6,26;2,74;1,56
20,206530,0254;-0,0029;0,0046;-5,98;2,95;1,66
20,216880,0254;-0,0029;0,0046;-5,98;2,95;1,66
20,225930,0251;0,0015;-0,0034;-5,99;2,86;1,5
20,235590,031;0,0049;-0,0007;-6,15;2,93;1,58
20,244890,031;0,0049;-0,0007;-6,15;2,93;1,58
20,254620,031;0,0049;-0,0007;-6,15;2,93;1,58
20,263850,031;-0,0029;0,0007;-6,09;2,92;1,74
20,272950,031;-0,0029;0,0007;-6,09;2,92;1,74
20,281870,031;-0,0029;0,0007;-6,09;2,92;1,74
20,29260,0244;0,0073;-0,0076;-6,1;2,98;1,52
20,301270,031;0,0029;0,0042;-6,29;3,1;1,47
20,311720,031;0,0029;0,0042;-6,29;3,1;1,47
20,322540,0261;0,0037;-0,0103;-5,98;2,87;1,73
20,335520,0261;0,0037;-0,0103;-5,98;2,87;1,73
20,346090,0276;0,0046;-0,0071;-6;2,82;1,68
20,35640,0259;0,0088;-0,0034;-6,09;2,82;1,65
20,36690,0259;0,0088;-0,0034;-6,09;2,82;1,65
20,377360,0259;0,0088;-0,0034;-6,09;2,82;1,65
20,388070,0259;0,0007;-0,0137;-6,17;3,05;1,57
20,398850,0293;0,0007;-0,0051;-6,02;2,82;1,53
20,40890,0293;0,0007;-0,0051;-6,02;2,82;1,53
20,418460,0293;0,0007;-0,0051;-6,02;2,82;1,53
20,427870,0322;-0,001;-0,0071;-6,01;3,03;1,75
20,437310,0327;0,0024;-0,0049;-6,04;2,92;1,74
20,446890,0327;0,0024;-0,0049;-6,04;2,92;1,74
20,45610,0327;0,0024;-0,0049;-6,04;2,92;1,74
20,465050,0254;0,0032;0,0007;-6,05;2,64;1,55
20,474680,0254;0,0032;0,0007;-6,05;2,64;1,55
20,483950,0251;0,002;-0,0056;-6,24;3,14;1,66
20,493040,0251;0,002;-0,0056;-6,24;3,14;1,66
20,502540,0283;0,0022;-0,009;-5,94;2,88;1,64
20,511670,0283;0,0022;-0,009;-5,94;2,88;1,64
20,520880,0249;0,0039;0,0005;-6,02;2,79;1,66
20,529820,0249;0,0039;0,0005;-6,02;2,79;1,66
20,540510,0286;-0,0015;0,0046;-6,02;2,98;1,55
20,550690,0286;-0,0015;0,0046;-6,02;2,98;1,55
20,561370,0291;0,0032;-0,0024;-6,17;2,78;1,57
20,570570,0291;0,0032;-0,0024;-6,17;2,78;1,57
20,579580,0291;0,0032;-0,0024;-6,17;2,78;1,57
20,589470,0281;-0,001;-0,0098;-5,87;2,87;1,69
20,599350,03;0,0039;-0,0037;-6,14;2,68;1,51
20,608510,03;0,0039;-0,0037;-6,14;2,68;1,51
20,617680,0298;0,0032;-0,0054;-5,95;3,03;1,72
20,626910,0298;0,0032;-0,0054;-5,95;3,03;1,72
20,636850,0298;0,0032;-0,0054;-5,95;3,03;1,72
20,6470,0286;-0,0022;-0,0024;-6,23;2,93;1,48
20,657940,0256;0,0037;-0,0042;-6,06;3,03;1,7
20,667360,0256;0,0037;-0,0042;-6,06;3,03;1,7
20,67760,0256;0,0037;-0,0042;-6,06;3,03;1,7
20,688130,0286;0,01;-0,0039;-6,05;2,98;1,63
20,699410,0222;0,0076;-0,01;-6,1;2,85;1,78
20,709830,0222;0,0076;-0,01;-6,1;2,85;1,78
20,720510,0266;0,0027;-0,0037;-6;2,91;1,44
20,730850,0266;0,0027;-0,0037;-6;2,91;1,44
20,743660,0303;0,0051;-0,0066;-6,08;2,87;1,63
20,753570,0303;0,0051;-0,0066;-6,08;2,87;1,63
20,763260,0278;-0,0046;0,0007;-6,22;2,77;1,53
20,772840,0278;-0,0046;0,0007;-6,22;2,77;1,53
20,782910,0283;0,0015;-0,0103;-5,92;3,13;1,65
20,79190,0283;0,0015;-0,0103;-5,92;3,13;1,65
20,80160,0283;0,0015;-0,0103;-5,92;3,13;1,65
20,810810,0266;0,0059;-0,0051;-6,06;3,01;1,7
20,819890,0266;0,0059;-0,0051;-6,06;3,01;1,7
20,829110,0281;0,0034;-0,0132;-5,94;2,85;1,49
20,8390,0222;-0,0002;-0,0046;-6,3;2,95;1,54
20,848120,0222;-0,0002;-0,0046;-6,3;2,95;1,54
20,857110,0264;0,0005;-0,0015;-5,82;2,74;1,4
20,866370,0264;0,0005;-0,0015;-5,82;2,74;1,4
20,875550,0264;0,0005;-0,0015;-5,82;2,74;1,4
20,884620,0312;0,0042;-0,0081;-6,02;2,94;1,58
20,89410,0312;0,0042;-0,0081;-6,02;2,94;1,58
20,902680,0364;0,0015;-0,0024;-6,08;3,13;1,58
20,911540,0364;0,0015;-0,0024;-6,08;3,13;1,58
20,920440,0364;0,0015;-0,0024;-6,08;3,13;1,58
20,929390,0315;-0,0029;-0,0022;-6,08;2,93;1,53
20,938370,0286;-0,0007;-0,0039;-6,05;3,01;1,75
20,949440,0286;-0,0007;-0,0039;-6,05;3,01;1,75
20,958490,0286;-0,0007;-0,0039;-6,05;3,01;1,75
20,967620,0305;0;-0,0117;-5,99;3,02;1,71
20,976810,032;-0,0051;-0,009;-6,21;2,85;1,59
20,985570,032;-0,0051;-0,009;-6,21;2,85;1,59
20,995810,032;-0,0051;-0,009;-6,21;2,85;1,59
21,011510,0322;-0,0049;-0,0056;-6,09;2,98;1,58
21,028010,0283;0,002;0,0005;-6,15;2,96;1,48
21,038320,0283;0,002;0,0005;-6,15;2,96;1,48
21,047940,0283;0,002;0,0005;-6,15;2,96;1,48
21,056930,0349;0,001;-0,0068;-6,2;2,96;1,44
21,067720,0337;0,0032;-0,0073;-5,98;2,85;1,56
21,078640,031;0,0017;-0,0034;-6,05;2,87;1,57
21,090170,031;0,0017;-0,0034;-6,05;2,87;1,57
21,100070,031;0,0017;-0,0034;-6,05;2,87;1,57
21,111060,0229;0,001;0,0029;-6,2;2,84;1,54
21,121240,0229;0,001;0,0029;-6,2;2,84;1,54
21,132980,0254;0,0007;-0,0049;-6,01;2,88;1,5
21,143580,0278;-0,0049;-0,001;-6,03;2,84;1,57
21,155260,0278;-0,0049;-0,001;-6,03;2,84;1,57
21,166030,0271;0,0005;-0,0017;-6,15;2,79;1,62
21,176230,0271;0,0005;-0,0017;-6,15;2,79;1,62
21,185250,0308;0,0044;-0,019;-5,98;3,06;1,56
21,194670,0308;0,0044;-0,019;-5,98;3,06;1,56
21,203990,0249;0,0005;-0,0122;-5,95;3,07;1,76
21,212910,0249;0,0005;-0,0122;-5,95;3,07;1,76
21,221760,0249;0,0005;-0,0122;-5,95;3,07;1,76
21,230530,0266;0,0017;0,0002;-6,02;2,94;1,69
21,23940,0237;0,0046;-0,0049;-6,12;2,87;1,51
21,248220,0237;0,0046;-0,0049;-6,12;2,87;1,51
21,256690,0237;0,0046;-0,0049;-6,12;2,87;1,51
21,265770,0239;0,0022;-0,0105;-6,05;2,81;1,74
21,274290,0239;0,0022;-0,0105;-6,05;2,81;1,74
21,283180,0291;0,0024;-0,0073;-6,17;2,85;1,83
21,291890,0291;0,0024;-0,0073;-6,17;2,85;1,83
21,301020,0291;0,0024;-0,0073;-6,17;2,85;1,83
21,30950,0286;0,0054;-0,0029;-5,98;2,85;1,72
21,318430,0286;-0,0032;-0,0083;-6,13;3,11;1,64
21,327130,0286;-0,0032;-0,0083;-6,13;3,11;1,64
21,33630,0286;-0,0032;-0,0083;-6,13;3,11;1,64
21,345990,0266;0,0049;0,0051;-6,04;3,04;1,66
21,35630,0269;0,0049;-0,0068;-6,18;3,01;1,66
21,365560,0269;0,0049;-0,0068;-6,18;3,01;1,66
21,374540,0269;0,0049;-0,0068;-6,18;3,01;1,66
21,383270,0298;0,0056;-0,0078;-6,08;2,73;1,46
21,392020,0298;0,0056;-0,0078;-6,08;2,73;1,46
21,400970,0298;0,0056;-0,0078;-6,08;2,73;1,46
21,409560,0276;-0,0027;0,0027;-5,95;2,88;1,62
21,41860,0271;0,0005;-0,0042;-5,92;3,01;1,6
21,427660,0271;0,0005;-0,0042;-5,92;3,01;1,6
21,436060,0271;0,0005;-0,0042;-5,92;3,01;1,6
21,445520,0308;0,0005;-0,0017;-6,08;2,96;1,64
21,455760,0308;0,0005;-0,0017;-6,08;2,96;1,64
21,465820,0256;0,0015;-0,0029;-6,03;2,7;1,72
21,475730,0256;0,0015;-0,0029;-6,03;2,7;1,72
21,48590,0271;0,0044;-0,0037;-6,06;2,83;1,72
21,49610,0271;0,0044;-0,0037;-6,06;2,83;1,72
21,505670,0232;0,0005;-0,0037;-5,98;2,76;1,79
21,515790,0232;0,0005;-0,0037;-5,98;2,76;1,79
21,525470,0232;0,0005;-0,0037;-5,98;2,76;1,79
21,53560,0232;0,0005;-0,0037;-5,98;2,76;1,79
21,545840,0286;-0,0032;-0,0046;-6,11;2,84;1,63
21,555280,0295;0,0044;0,0046;-5,9;2,81;1,5
21,565960,0295;-0,0002;0,0063;-6;2,85;1,47
21,575390,0295;-0,0002;0,0063;-6;2,85;1,47
21,585290,0293;-0,0002;-0,0029;-6,07;2,96;1,59
21,594990,0293;-0,0002;-0,0029;-6,07;2,96;1,59
21,603940,0352;0,0034;-0,0068;-5,97;2,95;1,5
21,613130,0352;0,0034;-0,0068;-5,97;2,95;1,5
21,622150,031;0,0039;-0,0063;-5,93;2,95;1,6
21,630990,031;0,0039;-0,0063;-5,93;2,95;1,6
21,639820,031;0,0039;-0,0063;-5,93;2,95;1,6
21,648720,0232;-0,0044;-0,0002;-5,99;2,79;1,64
21,657510,0232;-0,0044;-0,0002;-5,99;2,79;1,64
21,666320,0344;0,0005;0,0039;-6,02;2,89;1,68
21,675060,0344;0,0005;0,0039;-6,02;2,89;1,68
21,683720,0205;-0,0034;-0,0051;-6,05;2,82;1,62
21,692790,0205;-0,0034;-0,0051;-6,05;2,82;1,62
21,70150,0225;0,0022;-0,0085;-6,05;2,98;1,79
21,710160,0225;0,0022;-0,0085;-6,05;2,98;1,79
21,719150,0225;0,0022;-0,0085;-6,05;2,98;1,79
21,727880,0203;-0,0012;-0,002;-6,24;2,82;1,66
21,737050,0203;-0,0012;-0,002;-6,24;2,82;1,66
21,746490,0237;0;-0,0098;-6,02;2,89;1,7
21,758010,0237;0;-0,0098;-6,02;2,89;1,7
21,76970,0298;0,0027;0,0017;-6,06;2,95;1,66
21,779880,0234;-0,0002;-0,0015;-6,09;2,87;1,63
21,789760,0234;-0,0002;-0,0015;-6,09;2,87;1,63
21,800010,0298;-0,0022;-0,0039;-6,21;2,89;1,57
21,809470,0298;-0,0022;-0,0039;-6,21;2,89;1,57
21,818750,0298;-0,0022;-0,0039;-6,21;2,89;1,57
21,827650,0273;-0,0063;-0,0044;-6,11;2,77;1,67
21,838360,0273;-0,0063;-0,0044;-6,11;2,77;1,67
21,848650,0295;-0,0012;-0,0056;-6,06;2,84;1,58
21,859460,031;0,0027;-0,0024;-6,17;3,11;1,63
21,869520,031;0,0027;-0,0024;-6,17;3,11;1,63
21,879780,0295;-0,0032;-0,0017;-6,1;3,12;1,56
21,890030,0295;-0,0032;-0,0017;-6,1;3,12;1,56
21,900630,0303;0,001;0,0012;-6,25;2,93;1,65
21,910220,0303;0,001;0,0012;-6,25;2,93;1,65
21,920230,0276;-0,0037;-0,0076;-5,95;2,78;1,53
21,929490,0276;-0,0037;-0,0076;-5,95;2,78;1,53
21,938830,0276;-0,0037;-0,0076;-5,95;2,78;1,53
21,948270,0269;0,0037;-0,0051;-6,07;2,88;1,5
21,957630,0269;0,0037;-0,0051;-6,07;2,88;1,5
21,967860,03;-0,001;-0,0061;-6,05;2,87;1,69
21,979040,0278;0,0046;0,0017;-6,07;2,95;1,38
21,988380,0278;0,0046;0,0017;-6,07;2,95;1,38
21,997410,0276;-0,0007;-0,0027;-6,21;2,98;1,69
22,005920,0276;-0,0007;-0,0027;-6,21;2,98;1,69
22,021010,0222;0,0002;-0,0076;-6,16;2,9;1,63
22,037030,0222;0,0002;-0,0076;-6,16;2,9;1,63
22,046940,0298;-0,0029;-0,0029;-6,02;3,01;1,55
22,056630,0298;-0,0029;-0,0029;-6,02;3,01;1,55
22,066420,0286;0,0051;0,0027;-5,9;2,87;1,67
22,076130,0286;0,0051;0,0027;-5,9;2,87;1,67
22,085550,0298;0,0005;-0,0073;-6,04;2,98;1,43
22,094170,0298;0,0005;-0,0073;-6,04;2,98;1,43
22,103080,0347;0,0022;-0,0034;-5,93;3,21;1,52
22,112180,0347;0,0022;-0,0034;-5,93;3,21;1,52
22,121270,0244;-0,0029;0,0068;-5,89;2,73;1,67
22,130290,0244;-0,0029;0,0068;-5,89;2,73;1,67
22,139130,0244;-0,0029;0,0068;-5,89;2,73;1,67
22,148260,0315;0,0054;-0,0095;-5,85;2,97;1,72
22,157430,0315;0,0054;-0,0095;-5,85;2,97;1,72
22,166290,0288;0,001;-0,0081;-6,01;2,97;1,44
22,175170,0288;0,001;-0,0081;-6,01;2,97;1,44
22,185580,0259;0,0042;-0,0007;-6,09;2,86;1,63
22,19510,0259;0,0042;-0,0007;-6,09;2,86;1,63
22,205360,0278;-0,0007;-0,0066;-5,87;2,95;1,43
22,21590,0278;-0,0007;-0,0066;-5,87;2,95;1,43
22,22610,0278;0,0051;-0,0044;-6,02;2,92;1,6
22,235760,0278;0,0051;-0,0044;-6,02;2,92;1,6
22,246630,0249;0,0071;-0,0024;-5,95;2,9;1,62
22,262810,0244;0,0051;-0,0071;-6,03;2,89;1,55
22,273450,0244;0,0051;-0,0071;-6,03;2,89;1,55
22,283920,0312;0,0049;-0,0022;-6,13;2,76;1,7
22,294740,0312;0,0049;-0,0022;-6,13;2,76;1,7
22,304940,0325;-0,0017;-0,0005;-6,08;2,96;1,59
22,315730,0325;-0,0017;-0,0005;-6,08;2,96;1,59
22,325130,0283;0,0002;-0,0068;-6,02;2,96;1,64
22,33520,0283;0,0002;-0,0068;-6,02;2,96;1,64
22,34440,0293;0,0039;0,0029;-5,9;2,81;1,6
22,354080,0293;0,0039;0,0029;-5,9;2,81;1,6
22,364640,032;0,0029;-0,0017;-6,1;2,95;1,67
22,373360,032;0,0029;-0,0017;-6,1;2,95;1,67
22,383010,0251;0,0022;-0,0095;-5,96;2,89;1,56
22,394180,0251;0,0022;-0,0095;-5,96;2,89;1,56
22,403570,0193;0,0017;-0,0044;-6,31;3,04;1,66
22,412610,0193;0,0017;-0,0044;-6,31;3,04;1,66
22,421460,0264;0,0042;-0,0027;-6,14;3,06;1,85
22,430990,0264;0,0042;-0,0027;-6,14;3,06;1,85
22,440590,0298;-0,0002;-0,0037;-6,08;2,89;1,59
22,449070,0298;-0,0002;-0,0037;-6,08;2,89;1,59
22,458140,0298;-0,0002;-0,0037;-6,08;2,89;1,59
22,467340,0227;0,0037;-0,0066;-6,15;2,82;1,63
22,476260,0227;0,0037;-0,0066;-6,15;2,82;1,63
22,485180,0293;0,0007;-0,002;-6,02;2,92;1,59
22,494360,0293;0,0007;-0,002;-6,02;2,92;1,59
22,503560,0298;0,0027;-0,002;-5,85;2,95;1,69
22,512580,0298;0,0027;-0,002;-5,85;2,95;1,69
22,522230,0298;0,0027;-0,002;-5,85;2,95;1,69
22,533050,031;-0,0029;-0,0061;-5,95;3,03;1,66
22,542610,0347;-0,0005;-0,0056;-6,08;3,04;1,69
22,552320,0347;-0,0005;-0,0056;-6,08;3,04;1,69
22,562240,0347;-0,0005;-0,0056;-6,08;3,04;1,69
22,572010,0293;0,0024;0,0056;-5,96;3,04;1,71
22,580930,0293;0,0024;0,0056;-5,96;3,04;1,71
22,589960,0293;0,0073;0,0032;-5,97;3,1;1,64
22,601840,0276;0,0024;-0,0017;-6,06;2,67;1,6
22,612660,0276;0,0024;-0,0017;-6,06;2,67;1,6
22,623680,0264;-0,0012;0,0002;-6,03;3;1,67
22,634780,0264;-0,0012;0,0002;-6,03;3;1,67
22,645290,0259;0,002;-0,0068;-6,08;2,92;1,69
22,655940,0259;0,002;-0,0068;-6,08;2,92;1,69
22,666150,0251;0,0015;-0,0059;-5,95;2,74;1,59
22,676460,0251;0,0015;-0,0059;-5,95;2,74;1,59
22,686750,0249;0,0024;-0,0122;-6,01;2,85;1,67
22,698080,0249;0,0024;-0,0122;-6,01;2,85;1,67
22,708370,0303;-0,001;-0,0027;-6,13;2,92;1,66
22,718270,0273;0,0005;-0,0061;-6,07;2,84;1,53
22,727390,0273;0,0005;-0,0061;-6,07;2,84;1,53
22,736650,0273;0,0005;-0,0061;-6,07;2,84;1,53
22,746250,0273;0,0005;-0,0061;-6,07;2,84;1,53
22,756060,0271;-0,0034;0;-6,03;2,63;1,63
22,765370,0298;0,0063;0,0017;-6,12;2,9;1,8
22,775160,0298;0,0063;0,0017;-6,12;2,9;1,8
22,784770,0283;0;-0,0032;-5,98;2,95;1,74
22,794180,0283;0;-0,0032;-5,98;2,95;1,74
22,804480,0273;0,0037;-0,0085;-6,02;2,95;1,56
22,813770,0273;0,0037;-0,0085;-6,02;2,95;1,56
22,8230,0237;0,0027;-0,0007;-5,76;2,88;1,66
22,832280,0237;0,0027;-0,0007;-5,76;2,88;1,66
22,841460,0271;-0,002;-0,0027;-5,99;2,92;1,72
22,851420,0271;-0,002;-0,0027;-5,99;2,92;1,72
22,860420,0303;-0,0005;-0,0027;-6,01;2,79;1,57
22,870940,0303;-0,0005;-0,0027;-6,01;2,79;1,57
22,880690,0337;0,0007;0,0002;-6,16;2,86;1,72
22,890080,0337;0,0007;0,0002;-6,16;2,86;1,72
22,899020,0315;0,0029;-0,0042;-5,86;2,79;1,6
22,908390,0315;0,0029;-0,0042;-5,86;2,79;1,6
22,917750,0261;0,002;-0,0051;-5,96;2,84;1,58
22,926870,0261;0,002;-0,0051;-5,96;2,84;1,58
22,936010,0261;0,002;-0,0051;-5,96;2,84;1,58
22,945360,03;-0,0005;-0,0076;-6,1;3,18;1,5
22,954180,03;-0,0005;-0,0076;-6,1;3,18;1,5
22,963980,0276;0,0073;-0,0083;-6,24;2,92;1,73
22,974590,0276;0,0073;-0,0083;-6,24;2,92;1,73
22,984370,0266;0,0007;-0,0037;-6,03;2,92;1,85
22,994060,0266;0,0007;-0,0037;-6,03;2,92;1,85
23,004790,0322;-0,0002;-0,0061;-6,04;2,82;1,51
23,017210,0322;-0,0002;-0,0061;-6,04;2,82;1,51
23,027580,0237;0;-0,0034;-6,13;2,84;1,57
23,038340,0237;0;-0,0034;-6,13;2,84;1,57
23,048720,0237;0;-0,0034;-6,13;2,84;1,57
23,066350,0247;-0,0017;-0,0017;-6,4;2,69;1,58
23,086040,0312;0,0076;-0,0117;-6,08;2,94;1,63
23,098880,0312;0,0076;-0,0117;-6,08;2,94;1,63
23,110190,0229;0,0027;0,0017;-5,9;2,78;1,57
23,121080,032;0,0024;0,0042;-5,95;2,82;1,69
23,130990,032;0,0024;0,0042;-5,95;2,82;1,69
23,140330,032;0,0024;0,0042;-5,95;2,82;1,69
23,150670,0291;-0,0056;-0,001;-6,1;2,9;1,56
23,161620,0264;-0,0024;-0,0027;-6;2,84;1,64
23,171980,0264;-0,0024;-0,0027;-6;2,84;1,64
23,18230,0264;-0,0024;-0,0027;-6;2,84;1,64
23,192670,0251;-0,002;-0,01;-5,87;2,69;1,63
23,202850,0239;0,0029;-0,0076;-6,12;3,07;1,72
23,213520,0239;0,0029;-0,0076;-6,12;3,07;1,72
23,225340,031;0,0051;-0,0073;-5,72;2,69;1,58
23,23560,031;0,0051;-0,0073;-5,72;2,69;1,58
23,247280,0237;0,0029;-0,0073;-6,09;2,83;1,58
23,257670,0251;0,0029;-0,0017;-6,11;2,93;1,64
23,268140,0251;0,0029;-0,0017;-6,11;2,93;1,64
23,279210,0242;-0,0027;-0,0073;-6,05;2,93;1,52
23,289150,0242;-0,0027;-0,0073;-6,05;2,93;1,52
23,299530,0242;-0,0027;-0,0073;-6,05;2,93;1,52
23,309720,0281;0,0012;-0,0137;-6,26;3,06;1,43
23,319310,0281;0,0012;-0,0137;-6,26;3,06;1,43
23,332290,02;-0,0017;-0,0059;-5,98;2,95;1,67
23,341720,02;-0,0017;-0,0059;-5,98;2,95;1,67
23,351910,0298;0,0032;0;-6,08;2,81;1,71
23,361120,0229;-0,0017;-0,0061;-5,96;2,91;1,6
23,370930,0229;-0,0017;-0,0061;-5,96;2,91;1,6
23,382040,0229;-0,0017;-0,0061;-5,96;2,91;1,6
23,39220,0295;0,002;-0,0063;-6,14;2,86;1,81
23,402880,0269;0,0015;0,0066;-6,02;2,76;1,51
23,413820,0269;0,0015;0,0066;-6,02;2,76;1,51
23,425940,0254;0,0022;-0,0017;-6,3;2,85;1,56
23,437040,0254;0,0022;-0,0017;-6,3;2,85;1,56
23,448150,0222;0;-0,0032;-6,02;2,76;1,66
23,458850,0222;0;-0,0032;-6,02;2,76;1,66
23,469190,0305;0;-0,0017;-5,99;2,95;1,48
23,479930,0305;0;-0,0017;-5,99;2,95;1,48
23,490210,03;-0,0005;-0,0176;-5,96;2,89;1,63
23,499720,0342;0,0042;-0,0137;-6,07;2,76;1,64
23,509070,0342;0,0042;-0,0137;-6,07;2,76;1,64
23,518850,0288;-0,0017;-0,0056;-5,95;2,87;1,63
23,528680,0288;-0,0017;-0,0056;-5,95;2,87;1,63
23,538280,0288;-0,0017;-0,0056;-5,95;2,87;1,63
23,548310,0269;0,0015;0,0012;-6;2,97;1,51
23,55750,0269;0,0015;0,0012;-6;2,97;1,51
23,567530,0271;-0,0063;-0,0024;-6,1;2,88;1,6
23,577950,0271;-0,0063;-0,0024;-6,1;2,88;1,6
23,587850,0315;0,0002;0,0034;-5,96;2,7;1,66
23,597550,0315;0,0002;0,0034;-5,96;2,7;1,66
23,607260,0264;-0,0017;-0,0137;-5,91;2,89;1,62
23,616950,0264;-0,0017;-0,0137;-5,91;2,89;1,62
23,628270,0259;0,0012;-0,0054;-5,97;2,94;1,54
23,637610,0332;-0,0002;-0,0024;-6,26;2,94;1,67
23,646890,0332;-0,0002;-0,0024;-6,26;2,94;1,67
23,656350,0295;0,0032;0,0007;-6,17;2,91;1,59
23,665740,0295;0,0032;0,0007;-6,17;2,91;1,59
23,675040,0295;0,0032;0,0007;-6,17;2,91;1,59
23,684510,0242;-0,001;-0,0017;-6,02;2,82;1,31
23,693410,0242;-0,001;-0,0017;-6,02;2,82;1,31
23,702810,0315;0,0037;-0,0024;-6,02;2,72;1,56
23,7120,0315;0,0037;-0,0024;-6,02;2,72;1,56
23,721590,0225;0,001;-0,0071;-6,02;2,94;1,65
23,730780,0225;0,001;-0,0071;-6,02;2,94;1,65
23,740220,0229;-0,0015;-0,0024;-5,92;2,94;1,65
23,749480,0229;-0,0015;-0,0024;-5,92;2,94;1,65
23,759320,0229;-0,0015;-0,0024;-5,92;2,94;1,65
23,770080,0298;0,002;-0,0034;-5,96;2,98;1,69
23,781280,0303;0;-0,0068;-5,98;2,79;1,66
23,792090,0303;0;-0,0068;-5,98;2,79;1,66
23,803340,0227;-0,0029;0,0005;-5,95;2,83;1,51
23,814350,0227;-0,0029;0,0005;-5,95;2,83;1,51
23,826420,0295;0,0037;-0,0056;-6,08;2,85;1,59
23,839140,0276;0,0024;0,0051;-5,83;2,82;1,6
23,849880,0276;0,0024;0,0051;-5,83;2,82;1,6
23,860280,0337;0,0007;0,0054;-6,22;2,86;1,51
23,870490,0337;0,0007;0,0054;-6,22;2,86;1,51
23,880330,0293;0,0002;-0,0027;-6,17;2,93;1,56
23,891010,0293;0,0002;-0,0027;-6,17;2,93;1,56
23,900890,0293;0,0002;-0,0027;-6,17;2,93;1,56
23,910880,0291;0,0005;-0,0007;-6,23;2,78;1,64
23,920930,0283;0,0007;0,0046;-6,05;2,89;1,61
23,930680,0283;0,0007;0,0046;-6,05;2,89;1,61
23,940370,0256;0,0037;-0,0083;-5,93;2,77;1,53
23,949930,0256;0,0037;-0,0083;-5,93;2,77;1,53
23,959240,0256;0,0037;-0,0083;-5,93;2,77;1,53
23,968680,0273;-0,0005;-0,0068;-5,99;2,66;1,55
23,978420,0276;0,0027;-0,011;-5,85;3,07;1,6
23,988460,0276;0,0027;-0,011;-5,85;3,07;1,6
23,997710,0278;0,0037;0,0007;-6,07;2,79;1,68
24,006960,0278;0,0037;0,0007;-6,07;2,79;1,68
24,016610,0278;0,0037;0,0007;-6,07;2,79;1,68
24,026070,0283;0;-0,0029;-6,15;3,02;1,69
24,035430,0283;0;-0,0029;-6,15;3,02;1,69
24,046340,0293;-0,0002;-0,0071;-6,1;2,9;1,63
24,055880,0293;-0,0002;-0,0071;-6,1;2,9;1,63
24,06550,0291;0,01;0,0027;-6,1;2,8;1,58
24,075280,0291;0,01;0,0027;-6,1;2,8;1,58
24,085220,0264;-0,0007;0,0063;-6;2,92;1,64
24,09570,0264;-0,0007;0,0063;-6;2,92;1,64
24,105380,03;0,0007;-0,0039;-6,04;2,96;1,58
24,114930,03;0,0007;-0,0039;-6,04;2,96;1,58
24,124150,0317;0,0017;0,0032;-6,17;2,85;1,46
24,13380,0317;0,0017;0,0032;-6,17;2,85;1,46
24,146760,0288;-0,0002;-0,0029;-6,22;2,89;1,66
24,162080,0288;-0,0002;-0,0029;-6,22;2,89;1,66
24,182790,0269;0,0051;0,0049;-6;2,84;1,62
24,196520,0269;0,0051;0,0049;-6;2,84;1,62
24,207180,0229;0,0005;-0,0066;-5,76;3,04;1,62
24,218240,0229;0,0005;-0,0066;-5,76;3,04;1,62
24,229480,0312;-0,0005;-0,0005;-6,08;2,92;1,53
24,241030,0303;0,0022;-0,0042;-6,01;2,94;1,71
24,25340,0303;0,0022;-0,0042;-6,01;2,94;1,71
24,26370,0271;0,0002;-0,0066;-6,17;3;1,45
24,273970,0271;0,0002;-0,0066;-6,17;3;1,45
24,28480,0364;0,002;-0,0029;-5,99;3;1,78
24,295040,0364;0,002;-0,0029;-5,99;3;1,78
24,30540,0225;0,0029;0,0002;-6,14;2,89;1,63
24,315610,0225;0,0029;0,0002;-6,14;2,89;1,63
24,325450,0283;0,0024;0,0034;-5,97;2,95;1,66
24,335290,0283;0,0024;0,0034;-5,97;2,95;1,66
24,345240,033;0,0022;0,0005;-6,11;3;1,66
24,354960,033;0,0022;0,0005;-6,11;3;1,66
24,364650,0283;-0,002;-0,0044;-5,97;2,89;1,47
24,374340,0283;-0,002;-0,0044;-5,97;2,89;1,47
24,383960,0271;0,0017;-0,0032;-5,83;2,82;1,64
24,395260,0271;0,0017;-0,0032;-5,83;2,82;1,64
24,405370,03;0,0056;-0,0002;-5,97;3,02;1,76
24,414960,03;0,0056;-0,0002;-5,97;3,02;1,76
24,424920,0264;0,0066;-0,0103;-6,02;2,98;1,82
24,434440,0264;0,0066;-0,0103;-6,02;2,98;1,82
24,444450,0315;0,0032;-0,0024;-6,13;3,05;1,52
24,455490,0315;0,0032;-0,0024;-6,13;3,05;1,52
24,465250,0295;0,0005;0,0002;-5,84;2,73;1,54
24,475060,0295;0,0005;0,0002;-5,84;2,73;1,54
24,48450,0227;0,0032;-0,0044;-6,19;2,6;1,6
24,495230,0227;0,0032;-0,0044;-6,19;2,6;1,6
24,505160,0227;0,0032;-0,0044;-6,19;2,6;1,6
24,514970,0288;-0,0024;0;-6,18;2,99;1,65
24,525270,0288;-0,0024;0;-6,18;2,99;1,65
24,537250,0229;0,0017;0,0059;-5,95;2,93;1,62
24,548180,0227;-0,0002;-0,0063;-6,09;3,03;1,6
24,559460,0227;-0,0002;-0,0063;-6,09;3,03;1,6
24,570660,0308;-0,0027;-0,0034;-6,11;3,15;1,51
24,582070,0308;-0,0027;-0,0034;-6,11;3,15;1,51
24,5930,0305;-0,0007;-0,0061;-5,99;2,83;1,58
24,604030,0359;0,0034;-0,0056;-6,15;2,96;1,63
24,614780,0359;0,0034;-0,0056;-6,15;2,96;1,63
24,625580,0247;-0,0017;0,0034;-6,01;2,86;1,6
24,636080,0247;-0,0017;0,0034;-6,01;2,86;1,6
24,645850,0256;-0,0015;-0,0022;-6,11;2,89;1,62
24,658110,0256;-0,0015;-0,0022;-6,11;2,89;1,62
24,668730,0249;0,0034;-0,0107;-5,96;2,91;1,69
24,680020,0339;0,0037;-0,0081;-5,9;2,77;1,56
24,690930,0339;0,0037;-0,0081;-5,9;2,77;1,56
24,701410,0256;0,0024;-0,0029;-6,13;2,94;1,75
24,711380,0256;0,0024;-0,0029;-6,13;2,94;1,75
24,720970,0283;-0,0017;-0,019;-6,07;2,85;1,57
24,730610,0283;-0,0017;-0,019;-6,07;2,85;1,57
24,740180,0283;-0,0017;-0,019;-6,07;2,85;1,57
24,75030,0261;0,0042;0,0042;-6,16;2,97;1,64
24,759910,0325;-0,0039;-0,0039;-5,92;2,89;1,64
24,769280,0325;-0,0039;-0,0039;-5,92;2,89;1,64
24,780130,0325;-0,0039;-0,0039;-5,92;2,89;1,64
24,790210,0293;-0,0054;0,0024;-6,12;2,92;1,53
24,80030,0293;-0,0054;0,0024;-6,12;2,92;1,53
24,810210,0286;0,0059;-0,0022;-6,04;2,97;1,62
24,819860,0271;0,0029;-0,0076;-6,06;2,88;1,49
24,829690,0271;0,0029;-0,0076;-6,06;2,88;1,49
24,840040,0288;-0,0044;-0,009;-6,07;2,97;1,54
24,849920,0288;-0,0044;-0,009;-6,07;2,97;1,54
24,861170,0288;-0,0044;-0,009;-6,07;2,97;1,54
24,871210,0317;0,0002;-0,0073;-6,21;2,9;1,6
24,881180,0317;0,0002;-0,0073;-6,21;2,9;1,6
24,89090,0317;-0,0012;0,0027;-5,88;3,1;1,62
24,900870,0317;-0,0012;0,0027;-5,88;3,1;1,62
24,912890,0251;0,0015;-0,0054;-5,93;2,82;1,79
24,92330,0256;-0,0037;-0,0044;-6,11;2,84;1,49
24,934840,0256;-0,0037;-0,0044;-6,11;2,84;1,49
24,946490,032;0,0042;-0,0105;-6,11;2,83;1,64
24,958280,032;0,0042;-0,0105;-6,11;2,83;1,64
24,969620,0251;-0,0005;0,0012;-5,99;2,87;1,89
24,981260,0251;-0,0005;0,0012;-5,99;2,87;1,89
24,992760,0266;-0,0017;-0,0081;-6,06;2,89;1,61
25,004970,0291;0,0054;-0,0051;-6,08;2,94;1,55
25,016880,0291;0,0054;-0,0051;-6,08;2,94;1,55
25,027030,0251;-0,0012;-0,0068;-6,09;3,14;1,6
25,036930,0251;-0,0012;-0,0068;-6,09;3,14;1,6
25,047180,0295;0,0073;-0,0068;-6,02;3,07;1,7
25,05730,0295;0,0073;-0,0068;-6,02;3,07;1,7
25,068780,0256;0,0024;-0,0017;-6,03;2,94;1,74
25,078460,0256;0,0024;-0,0017;-6,03;2,94;1,74
25,087950,0305;-0,0002;-0,0027;-6,17;2,94;1,53
25,097820,0305;-0,0002;-0,0027;-6,17;2,94;1,53
25,10770,0222;-0,0034;-0,0039;-6,07;2,79;1,62
25,117240,0222;-0,0034;-0,0039;-6,07;2,79;1,62
25,126860,0283;0,0063;-0,0059;-6,05;2,85;1,53
25,136570,0283;0,0063;-0,0059;-6,05;2,85;1,53
25,146510,0305;0,0051;-0,0032;-5,86;2,81;1,42
25,156190,0305;0,0051;-0,0032;-5,86;2,81;1,42
25,165870,0298;-0,001;-0,0002;-6,1;2,92;1,6
25,176070,0298;-0,001;-0,0002;-6,1;2,92;1,6
25,185920,0256;-0,0007;0,0012;-6,04;3,01;1,61
25,19590,0256;-0,0007;0,0012;-6,04;3,01;1,61
25,206170,0312;0,0059;-0,0024;-6,14;2,92;1,59
25,216240,0312;0,0059;-0,0024;-6,14;2,92;1,59
25,225280,0312;0,0059;-0,0024;-6,14;2,92;1,59
25,235470,0278;-0,0032;-0,0076;-6,05;2,85;1,6
25,245550,0286;-0,001;-0,0125;-5,97;2,83;1,79
25,255750,0286;-0,001;-0,0125;-5,97;2,83;1,79
25,26550,0281;0,0027;0;-6,07;2,71;1,59
25,284350,0312;-0,0012;-0,0034;-6,22;2,76;1,49
25,304560,031;-0,0032;-0,0032;-5,96;2,8;1,59
25,317370,031;-0,0032;-0,0032;-5,96;2,8;1,59
25,32910,0276;0,0037;-0,002;-6,23;2,95;1,6
25,342380,0264;0,0056;-0,0056;-6,24;2,94;1,58
25,353590,0264;0,0056;-0,0056;-6,24;2,94;1,58
25,365990,0254;-0,002;-0,002;-5,89;2,8;1,66
25,378130,0254;-0,002;-0,002;-5,89;2,8;1,66
25,390830,0286;0,0007;0;-6,17;2,85;1,53
25,403240,0286;0,0007;0;-6,17;2,85;1,53
25,415820,0266;0,0049;-0,0183;-6,12;2,92;1,58
25,426940,0303;-0,0007;0,0017;-6,1;2,85;1,56
25,437680,0303;-0,0007;0,0017;-6,1;2,85;1,56
25,448510,0303;-0,001;-0,0061;-6,03;3,03;1,54
25,459340,0291;0,0024;-0,0073;-6,15;2,95;1,64
25,469840,0291;0,0024;-0,0073;-6,15;2,95;1,64
25,481760,0291;0,0024;-0,0073;-6,15;2,95;1,64
25,492450,0261;0,0005;-0,0068;-6,04;2,85;1,56
25,502670,0217;-0,0005;-0,0044;-5,95;2,95;1,56
25,512820,0217;-0,0005;-0,0044;-5,95;2,95;1,56
25,523420,0266;-0,0037;0,0046;-6,14;2,83;1,78
25,53360,0266;-0,0037;0,0046;-6,14;2,83;1,78
25,544340,0266;-0,0037;0,0046;-6,14;2,83;1,78
25,554430,0344;0,0022;-0,0017;-6,31;2,93;1,65
25,564820,0308;0,0002;-0,0024;-6,02;2,78;1,66
25,575490,0308;0,0002;-0,0024;-6,02;2,78;1,66
25,585670,0308;0,0015;-0,0063;-5,89;2,91;1,55
25,59470,0308;0,0015;-0,0063;-5,89;2,91;1,55
25,604970,03;0,0046;-0,0103;-6,01;3,01;1,52
25,615230,03;0,0046;-0,0103;-6,01;3,01;1,52
25,625490,0249;0,002;-0,0032;-6,06;2,78;1,47
25,63510,0249;0,002;-0,0032;-6,06;2,78;1,47
25,645110,0332;0,0046;-0,0044;-6,18;2,93;1,65
25,655290,0332;0,0046;-0,0044;-6,18;2,93;1,65
25,665110,0276;-0,0037;-0,0056;-6,11;3,05;1,51
25,675250,0276;-0,0037;-0,0056;-6,11;3,05;1,51
25,687110,0244;-0,001;-0,0125;-6,17;3,02;1,64
25,698950,0244;-0,001;-0,0125;-6,17;3,02;1,64
25,710310,0208;0,0027;-0,0029;-6,1;2,93;1,53
25,722290,0225;0,0005;0,0029;-6,16;2,93;1,61
25,733920,0225;0,0005;0,0029;-6,16;2,93;1,61
25,745640,0283;0,0039;0,0056;-5,87;3,08;1,63
25,756790,0283;0,0039;0,0056;-5,87;3,08;1,63
25,769030,0266;0,0015;-0,0032;-6,06;2,94;1,48
25,781020,0215;0,0051;-0,0076;-6,02;3,01;1,7
25,793120,0215;0,0051;-0,0076;-6,02;3,01;1,7
25,804130,0305;0,002;-0,01;-6,11;2,75;1,62
25,814610,0305;0,002;-0,01;-6,11;2,75;1,62
25,825150,0249;0,0002;-0,0039;-5,89;2,87;1,63
25,835620,0249;0,0002;-0,0039;-5,89;2,87;1,63
25,846480,032;0,0044;-0,0029;-6,15;3,02;1,47
25,856890,032;0,0044;-0,0029;-6,15;3,02;1,47
25,867210,0332;-0,0002;-0,0098;-6,14;2,67;1,57
25,877160,0332;-0,0002;-0,0098;-6,14;2,67;1,57
25,888650,0359;0,0039;-0,0005;-6,15;2,75;1,68
25,899260,0359;0,0039;-0,0005;-6,15;2,75;1,68
25,909190,0278;0,001;0,001;-5,82;3,01;1,52
25,920030,0278;0,001;0,001;-5,82;3,01;1,52
25,930650,0254;0,0022;-0,0081;-6,02;2,91;1,5
25,942070,0254;0,0022;-0,0081;-6,02;2,91;1,5
25,951930,0295;0,0022;-0,0071;-6,07;3,11;1,65
25,962030,0244;0,0007;0,0076;-5,92;3;1,61
25,972240,0244;0,0007;0,0076;-5,92;3;1,61
25,983680,0278;0,0032;-0,0112;-6,02;2,95;1,73
25,993850,0278;0,0032;-0,0112;-6,02;2,95;1,73
26,004890,0278;0,0032;-0,0112;-6,02;2,95;1,73
26,015260,0278;0,0032;-0,0112;-6,02;2,95;1,73
26,025040,0249;0,0044;0,0059;-6,23;2,83;1,55
26,035040,0249;0,0044;0,0059;-6,23;2,83;1,55
26,045270,0225;0,0017;-0,0085;-6,1;2,93;1,68
26,055410,0225;0,0017;-0,0085;-6,1;2,93;1,68
26,065610,0291;-0,0007;-0,0007;-6,14;2,89;1,58
26,077230,0291;-0,0007;-0,0007;-6,14;2,89;1,58
26,089210,0293;0,0029;-0,0022;-6,1;2,87;1,56
26,102070,0317;0,0024;0,0015;-5,94;2,95;1,57
26,113340,0317;0,0024;0,0015;-5,94;2,95;1,57
26,124420,0227;-0,0076;-0,0085;-5,92;2,91;1,58
26,136710,0227;-0,0076;-0,0085;-5,92;2,91;1,58
26,147980,022;-0,0029;-0,0076;-6,05;2,73;1,6
26,159220,022;-0,0029;-0,0076;-6,05;2,73;1,6
26,171240,0271;-0,0017;0,0015;-6,09;3,13;1,65
26,181680,0264;0,0042;-0,0032;-6,2;2,88;1,73
26,192560,0264;0,0042;-0,0032;-6,2;2,88;1,73
26,20320,0249;0,0037;-0,0049;-6,03;2,96;1,61
26,213760,0249;0,0037;-0,0049;-6,03;2,96;1,61
26,224070,0249;0,0037;-0,0049;-6,03;2,96;1,61
26,235010,0312;0,0027;-0,0002;-5,86;3,02;1,69
26,245380,0312;0,0027;-0,0002;-5,86;3,02;1,69
26,25570,0293;0,0039;0,0042;-5,97;2,93;1,6
26,265960,0281;0,0002;-0,0063;-6,27;2,85;1,67
26,276250,0281;0,0002;-0,0063;-6,27;2,85;1,67
26,286120,0222;0,0007;-0,0007;-5,93;2,87;1,69
26,296260,0222;0,0007;-0,0007;-5,93;2,87;1,69
26,307590,0295;0,0039;-0,0005;-6,21;2,92;1,5
26,317930,0295;0,0039;-0,0005;-6,21;2,92;1,5
26,328460,0251;0,0034;-0,0144;-6,08;2,85;1,68
26,338710,0251;0,0034;-0,0144;-6,08;2,85;1,68
26,349240,0334;0,0076;-0,0078;-6,05;2,98;1,53
26,359920,0349;0,0002;-0,0127;-6,08;2,89;1,59
26,370330,0349;0,0002;-0,0127;-6,08;2,89;1,59
26,382680,0195;0,0012;-0,0037;-6,21;2,82;1,57
26,393270,0195;0,0012;-0,0037;-6,21;2,82;1,57
26,404080,0266;-0,0002;0;-6,08;2,91;1,7
26,414890,0266;-0,0002;0;-6,08;2,91;1,7
26,425710,0205;-0,0059;-0,0051;-6,05;2,79;1,57
26,437590,0205;-0,0059;-0,0051;-6,05;2,79;1,57
26,449110,0281;-0,001;-0,0012;-6,07;2,69;1,63
26,468740,0283;0,0037;0,0012;-6,19;2,82;1,59
26,489940,0298;-0,0005;0,0015;-5,97;2,78;1,57
26,503840,0303;-0,002;-0,0027;-5,84;2,79;1,56
26,518750,0303;-0,002;-0,0027;-5,84;2,79;1,56
26,531890,0315;0;-0,0137;-6,17;2,95;1,69
26,544660,0288;-0,0024;-0,0015;-6,08;2,75;1,73
26,556360,0288;-0,0024;-0,0015;-6,08;2,75;1,73
26,568030,0308;-0,0005;0,0042;-6,12;2,89;1,6
26,582780,0291;0,0037;-0,0042;-5,94;2,82;1,58
26,59840,0291;0,0037;-0,0042;-5,94;2,82;1,58
26,612350,0264;-0,0039;-0,0039;-6,03;2,98;1,76
26,626060,03;0,0027;-0,0044;-6,07;2,88;1,56
26,636770,03;0,0027;-0,0044;-6,07;2,88;1,56
26,647140,0315;0,0037;-0,0032;-6,01;2,83;1,65
26,658080,0315;0,0037;-0,0032;-6,01;2,83;1,65
26,668780,0325;0,0027;-0,0132;-6,13;2,78;1,5
26,679430,0325;0,0027;-0,0132;-6,13;2,78;1,5
26,689860,0371;0,0012;-0,0032;-5,82;2,79;1,65
26,700420,0305;-0,0012;-0,0168;-6;2,82;1,56
26,710890,0305;-0,0012;-0,0168;-6;2,82;1,56
26,722870,0291;0,002;0;-6,09;2,82;1,55
26,733720,0291;0,002;0;-6,09;2,82;1,55
26,745050,0293;0,0039;-0,0059;-6,01;2,82;1,61
26,756090,0293;0,0039;-0,0059;-6,01;2,82;1,61
26,767030,0264;-0,0017;0,0081;-5,92;2,7;1,69
26,777840,0264;-0,0017;0,0081;-5,92;2,7;1,69
26,788690,0227;0,0042;0,0044;-6,19;2,73;1,62
26,799440,0259;-0,0015;-0,0007;-6,19;3,06;1,64
26,810080,0259;-0,0015;-0,0007;-6,19;3,06;1,64
26,820450,0259;-0,0015;-0,0007;-6,19;3,06;1,64
26,832260,0264;0,0022;-0,0024;-6,11;2,74;1,68
26,844510,03;0,0017;-0,0107;-6,06;2,9;1,66
26,857230,03;0,0017;-0,0107;-6,06;2,9;1,66
26,868550,0264;0,0017;-0,0049;-6,24;2,88;1,66
26,880160,0264;0,0017;-0,0049;-6,24;2,88;1,66
26,892630,0247;0,0005;-0,0002;-6,01;3,04;1,5
26,905920,0212;0,0061;-0,0061;-6,02;2,89;1,57
26,922360,0212;0,0061;-0,0061;-6,02;2,89;1,57
26,93530,0305;0,0032;-0,0051;-6,08;2,83;1,66
26,947540,0315;0,0032;-0,001;-6,1;3;1,59
26,957860,0315;0,0032;-0,001;-6,1;3;1,59
26,966710,0234;0,0066;-0,0076;-6,06;2,75;1,58
26,975840,0234;0,0066;-0,0076;-6,06;2,75;1,58
26,984770,0247;0,0005;-0,0029;-6,01;2,8;1,69
26,993580,0247;0,0005;-0,0029;-6,01;2,8;1,69
27,002040,0247;0,0007;-0,002;-6,22;3,04;1,7
27,010580,0247;0,0007;-0,002;-6,22;3,04;1,7
27,019320,0247;0,0007;-0,002;-6,22;3,04;1,7
27,027630,0305;-0,0056;-0,011;-5,97;2,99;1,57
27,036060,0305;-0,0056;-0,011;-5,97;2,99;1,57
27,045370,0305;-0,0056;-0,011;-5,97;2,99;1,57
27,054240,0305;-0,0056;-0,011;-5,97;2,99;1,57
27,062820,0273;0,0042;-0,0049;-6,02;2,92;1,67
27,071090,0247;-0,001;-0,0063;-6,08;2,78;1,66
27,079520,0237;0,0044;-0,0049;-6,27;3;1,68
27,088040,0237;0,0044;-0,0049;-6,27;3;1,68
27,096180,0237;0,0044;-0,0049;-6,27;3;1,68
27,104320,0303;0;-0,0144;-5,96;2,77;1,53
27,11240,0303;0;-0,0144;-5,96;2,77;1,53
27,120060,0303;0;-0,0144;-5,96;2,77;1,53
27,127770,0251;0,0017;0,0005;-6,03;3,09;1,67
27,137320,0251;0,0017;0,0005;-6,03;3,09;1,67
27,145520,0249;-0,0015;0,0029;-6,13;2,78;1,59
27,153410,0249;-0,0015;0,0029;-6,13;2,78;1,59
27,16160,0249;-0,0015;0,0029;-6,13;2,78;1,59
27,169330,032;0,0005;0;-5,98;2,89;1,62
27,177960,032;0,0005;0;-5,98;2,89;1,62
27,186410,0244;0,0015;-0,0112;-6,06;2,86;1,52
27,195220,0244;0,0015;-0,0112;-6,06;2,86;1,52
27,20330,0244;0,0015;-0,0112;-6,06;2,86;1,52
27,213950,0293;0,0054;-0,01;-6,18;2,85;1,69
27,223470,0249;0,0078;0,0044;-6,15;2,77;1,69
27,232880,0249;0,0078;0,0044;-6,15;2,77;1,69
27,242150,0266;0,0042;-0,0093;-6,2;2,75;1,56
27,251760,0266;0,0042;-0,0093;-6,2;2,75;1,56
27,260810,03;-0,0073;0,0022;-6,04;2,93;1,62
27,269830,03;-0,0073;0,0022;-6,04;2,93;1,62
27,278950,03;-0,0073;0,0022;-6,04;2,93;1,62
27,288460,0271;0,0022;-0,0012;-6,13;2,91;1,61
27,297380,0271;0,0022;-0,0012;-6,13;2,91;1,61
27,306960,0291;-0,0015;-0,0027;-6,05;2,79;1,83
27,315970,0291;-0,0015;-0,0027;-6,05;2,79;1,83
27,324250,0317;0,0005;-0,0015;-6,13;2,98;1,39
27,332220,0317;0,0005;-0,0015;-6,13;2,98;1,39
27,342140,0291;-0,0002;-0,0032;-6,24;2,9;1,53
27,35060,0291;-0,0002;-0,0032;-6,24;2,9;1,53
27,359060,0325;0,0017;-0,0049;-6,12;2,77;1,42
27,367020,0325;0,0017;-0,0049;-6,12;2,77;1,42
27,375330,0325;0,0017;-0,0049;-6,12;2,77;1,42
27,383310,0325;0,0017;-0,0049;-6,12;2,77;1,42
27,391420,0254;-0,0029;-0,002;-6,18;2,93;1,53
27,399240,0254;-0,0029;-0,002;-6,18;2,93;1,53
27,407010,0291;0,0029;-0,0095;-6,04;2,82;1,66
27,415080,0291;0,0029;-0,0095;-6,04;2,82;1,66
27,423260,0227;-0,0007;0,0032;-6,11;2,89;1,6
27,430970,0227;-0,0007;0,0032;-6,11;2,89;1,6
27,439030,0227;-0,0007;0,0032;-6,11;2,89;1,6
27,447280,0339;0,0015;-0,012;-6,23;2,8;1,51
27,456620,0339;0,0015;-0,012;-6,23;2,8;1,51
27,464510,0315;-0,0024;-0,0022;-5,98;2,98;1,66
27,472590,0315;-0,0024;-0,0022;-5,98;2,98;1,66
27,480330,0315;-0,0024;-0,0022;-5,98;2,98;1,66
27,48810,0286;0,0083;-0,0051;-5,9;3,06;1,56
27,496070,0286;0,0083;-0,0051;-5,9;3,06;1,56
27,51210,0225;0,002;-0,0017;-6,07;3,05;1,64
27,528410,0325;0,0066;-0,0044;-6,11;3,08;1,63
27,53650,0325;0,0066;-0,0044;-6,11;3,08;1,63
27,546880,031;0,0012;-0,0017;-5,99;2,83;1,47
27,554740,031;0,0012;-0,0017;-5,99;2,83;1,47
27,564090,0273;0,0015;-0,0005;-6,05;3,02;1,65
27,57350,0273;0,0015;-0,0005;-6,05;3,02;1,65
27,582980,0256;-0,0032;-0,0039;-6,04;3,02;1,5
27,591770,0256;-0,0032;-0,0039;-6,04;3,02;1,5
27,60020,0256;-0,0032;-0,0039;-6,04;3,02;1,5
27,609480,0295;0,001;-0,0044;-6,08;2,9;1,68
27,619540,0295;0,001;-0,0044;-6,08;2,9;1,68
27,629170,0317;-0,001;-0,009;-6,15;2,88;1,68
27,638820,0317;-0,001;-0,009;-6,15;2,88;1,68
27,648270,0266;0,0042;-0,0017;-6,15;2,79;1,68
27,658370,0266;0,0042;-0,0017;-6,15;2,79;1,68
27,668510,0293;-0,0046;-0,0046;-6;2,69;1,63
27,678490,0293;-0,0046;-0,0046;-6;2,69;1,63
27,688260,0239;-0,0037;0,001;-6,02;3,03;1,56
27,697610,0239;-0,0037;0,001;-6,02;3,03;1,56
27,70660,0251;-0,0007;0,0017;-5,89;2,85;1,57
27,71540,0251;-0,0007;0,0017;-5,89;2,85;1,57
27,724090,0271;0,0073;-0,0078;-6,09;2,93;1,77
27,732970,0271;0,0073;-0,0078;-6,09;2,93;1,77
27,741380,0271;0,0073;-0,0078;-6,09;2,93;1,77
27,751680,0281;-0,0015;-0,0005;-5,99;2,79;1,63
27,76050,0281;-0,0015;-0,0005;-5,99;2,79;1,63
27,769280,0276;0,0022;0,0032;-6,02;3,02;1,6
27,777990,0276;0,0022;0,0032;-6,02;3,02;1,6
27,787170,0312;0,002;-0,0002;-6,02;2,75;1,76
27,795860,0312;0,002;-0,0002;-6,02;2,75;1,76
27,804430,0312;0,002;-0,0002;-6,02;2,75;1,76
27,813190,0312;-0,0032;-0,0002;-5,79;2,76;1,64
27,821760,0312;-0,0032;-0,0002;-5,79;2,76;1,64
27,829940,0271;0,0068;0,0061;-5,88;2,92;1,54
27,838360,0271;0,0068;0,0061;-5,88;2,92;1,54
27,84670,0271;0,0024;-0,0061;-6,02;2,96;1,63
27,855870,0271;0,0024;-0,0061;-6,02;2,96;1,63
27,863890,0271;0,0024;-0,0061;-6,02;2,96;1,63
27,872030,0264;-0,0044;-0,0034;-6,05;2,97;1,66
27,880410,0264;-0,0044;-0,0034;-6,05;2,97;1,66
27,8890,0271;-0,002;-0,0059;-5,93;2,96;1,66
27,897160,0271;-0,002;-0,0059;-5,93;2,96;1,66
27,90510,0261;0,0029;-0,0007;-6,18;2,98;1,54
27,91340,0261;0,0029;-0,0007;-6,18;2,98;1,54
27,922770,0261;0,0029;-0,0007;-6,18;2,98;1,54
27,93110,0251;-0,0044;-0,0093;-6,11;2,94;1,81
27,939410,0222;-0,0007;-0,0046;-5,98;2,89;1,63
27,947710,0222;-0,0007;-0,0046;-5,98;2,89;1,63
27,958210,0222;-0,0007;-0,0046;-5,98;2,89;1,63
27,967470,0293;0,0034;-0,0027;-6,05;2,9;1,5
27,976280,0293;0,0034;-0,0027;-6,05;2,9;1,5
27,985260,0295;0,0032;-0,012;-5,94;2,72;1,6
27,99360,0295;0,0032;-0,012;-5,94;2,72;1,6
28,00330,0271;-0,0022;-0,0073;-6,08;3,02;1,6
28,012480,0271;-0,0022;-0,0073;-6,08;3,02;1,6
28,022370,0271;-0,0022;-0,0073;-6,08;3,02;1,6
28,032020,0264;0,0063;-0,0149;-6,12;2,84;1,5
28,041550,0283;0,0012;-0,0107;-5,94;2,84;1,73
28,050850,0283;0,0012;-0,0107;-5,94;2,84;1,73
28,059160,0283;0,0012;-0,0107;-5,94;2,84;1,73
28,068440,0315;0;-0,0029;-5,98;2,95;1,6
28,077850,0315;0;-0,0029;-5,98;2,95;1,6
28,087240,0334;0,0015;-0,0078;-6,25;2,89;1,5
28,096420,0334;0,0015;-0,0078;-6,25;2,89;1,5
28,104690,0278;0,0017;-0,0103;-5,99;2,83;1,61
28,112810,0278;0,0017;-0,0103;-5,99;2,83;1,61
28,121190,0278;0,0017;-0,0103;-5,99;2,83;1,61
28,12960,0254;0,0017;0,0039;-6,11;2,88;1,51
28,137960,0254;0,0017;0,0039;-6,11;2,88;1,51
28,146250,0269;0,0012;-0,0022;-5,96;2,84;1,67
28,152980,0269;0,0012;-0,0022;-5,96;2,84;1,67
28,16260,0239;0,0024;0,002;-6,08;3,02;1,52
28,171050,0239;0,0024;0,002;-6,08;3,02;1,52
28,179610,0239;0,0024;0,002;-6,08;3,02;1,52
28,187750,0239;0,0024;0,002;-6,08;3,02;1,52
28,196080,0261;-0,0012;-0,011;-5,98;2,75;1,66
28,204070,0261;-0,0012;-0,011;-5,98;2,75;1,66
28,212570,0264;0,002;-0,0081;-6;2,82;1,53
28,220480,0264;0,002;-0,0081;-6;2,82;1,53
28,228390,0266;0,0022;0,0012;-6;2,9;1,4
28,236350,0266;0,0022;0,0012;-6;2,9;1,4
28,244310,0239;0,0005;-0,0176;-6,15;2,76;1,73
28,252340,0239;0,0005;-0,0176;-6,15;2,76;1,73
28,260290,0293;0,0066;-0,0066;-6,11;2,82;1,51
28,26830,0293;0,0066;-0,0066;-6,11;2,82;1,51
28,276470,0293;0,0066;-0,0066;-6,11;2,82;1,51
28,284450,0259;0,0017;-0,0044;-6,09;2,82;1,76
28,292370,0259;0,0017;-0,0044;-6,09;2,82;1,76
28,300240,0259;0,0017;-0,0044;-6,09;2,82;1,76
28,307990,0249;0,0002;0,001;-5,98;2,79;1,58
28,316110,0249;0,0002;0,001;-5,98;2,79;1,58
28,324040,0264;0,0027;0,0054;-6,2;2,78;1,59
28,332220,0264;0,0027;0,0054;-6,2;2,78;1,59
28,340640,033;-0,0007;-0,0063;-6,15;2,64;1,63
28,349090,033;-0,0007;-0,0063;-6,15;2,64;1,63
28,357470,033;-0,0007;-0,0063;-6,15;2,64;1,63
28,366950,0295;0,0059;0,0078;-5,98;2,94;1,59
28,376270,0295;0,0059;0,0078;-5,98;2,94;1,59
28,385270,0264;-0,0022;-0,0029;-6,11;3,05;1,75
28,394450,0264;-0,0022;-0,0029;-6,11;3,05;1,75
28,403890,0251;-0,0017;-0,001;-6,17;2,86;1,6
28,413430,0251;-0,0017;-0,001;-6,17;2,86;1,6
28,42350,0315;-0,0002;-0,0098;-5,92;2,9;1,57
28,433180,0315;-0,0002;-0,0098;-5,92;2,9;1,57
28,443520,0312;-0,0017;-0,0037;-6,28;2,84;1,55
28,45350,0312;-0,0017;-0,0037;-6,28;2,84;1,55
28,463870,0339;-0,0012;-0,0061;-6,05;3,11;1,57
28,480090,0339;-0,0012;-0,0061;-6,05;3,11;1,57
28,49650,0242;0,001;-0,0024;-6,18;2,79;1,68
28,50650,0242;0,001;-0,0024;-6,18;2,79;1,68
28,516290,0278;0,0007;-0,0017;-6,11;2,92;1,64
28,527090,0261;0,0046;-0,0105;-6,1;3;1,69
28,53610,0261;0,0046;-0,0105;-6,1;3;1,69
28,545940,0312;-0,0042;-0,0039;-6,03;2,9;1,66
28,555590,0312;-0,0042;-0,0039;-6,03;2,9;1,66
28,564650,0239;-0,0042;0,0034;-5,92;2,76;1,65
28,575250,0239;-0,0042;0,0034;-5,92;2,76;1,65
28,58430,0249;0,0002;0;-5,95;2,89;1,56
28,593340,0249;0,0002;0;-5,95;2,89;1,56
28,602410,0249;0,0002;0;-5,95;2,89;1,56
28,610970,0305;0,0034;-0,0002;-5,98;2,68;1,63
28,62010,0305;0,0034;-0,0002;-5,98;2,68;1,63
28,628950,0288;0,0012;-0,0144;-6,17;2,82;1,75
28,638440,0288;0,0012;-0,0144;-6,17;2,82;1,75
28,650350,0269;0,0005;-0,0083;-6,09;2,87;1,56
28,659810,0276;0,0032;0;-6,03;2,87;1,56
28,668460,0276;0,0032;0;-6,03;2,87;1,56
28,676890,0276;0,0032;0;-6,03;2,87;1,56
28,685740,0337;0,0034;0,0005;-5,96;2,82;1,56
28,694390,0337;0,0034;0,0005;-5,96;2,82;1,56
28,702870,0337;0,0034;0,0005;-5,96;2,82;1,56
28,711240,0249;-0,0005;0,0002;-6,12;3,04;1,72
28,719990,0256;0,0015;-0,0002;-6,08;2,98;1,75
28,728240,0256;0,0015;-0,0002;-6,08;2,98;1,75
28,737980,0256;0,0015;-0,0002;-6,08;2,98;1,75
28,749630,0229;0,0007;-0,0017;-6,15;2,81;1,55
28,759140,0271;0,0024;-0,0134;-5,9;2,95;1,55
28,769910,0271;0,0024;-0,0134;-5,9;2,95;1,55
28,782010,0271;0,0024;-0,0134;-5,9;2,95;1,55
28,794760,0283;0,0034;-0,0081;-6,11;2,84;1,52
28,804720,0308;0,0073;-0,0073;-6,18;2,74;1,57
28,817340,0308;0,0073;-0,0073;-6,18;2,74;1,57
28,827380,0264;0,0051;-0,0061;-6,08;2,93;1,58
28,837330,0264;0,0051;-0,0061;-6,08;2,93;1,58
28,847310,0283;-0,0017;-0,0027;-6,05;2,94;1,5
28,859660,0283;-0,0017;-0,0027;-6,05;2,94;1,5
28,86960,0305;0,0042;-0,0032;-5,93;3,01;1,6
28,877860,0305;0,0042;-0,0032;-5,93;3,01;1,6
28,88610,0305;0,0042;-0,0032;-5,93;3,01;1,6
28,89470,0251;0,0017;-0,0066;-5,98;2,95;1,58
28,903450,0251;0,0017;-0,0066;-5,98;2,95;1,58
28,911710,03;-0,0042;-0,0115;-5,79;2,86;1,49
28,920180,03;-0,0042;-0,0115;-5,79;2,86;1,49
28,92840,0273;0,0027;-0,0034;-5,94;2,86;1,66
28,937120,0273;0,0027;-0,0034;-5,94;2,86;1,66
28,945410,0303;0,0012;-0,0073;-5,99;2,86;1,62
28,956370,0303;0,0012;-0,0073;-5,99;2,86;1,62
28,965040,0308;-0,0005;-0,0027;-5,86;2,89;1,73
28,977830,0308;-0,0005;-0,0027;-5,86;2,89;1,73
28,991890,0244;-0,0042;-0,0044;-6,12;2,84;1,53
29,003650,0305;0,0034;-0,0012;-6,21;3,13;1,63
29,015110,0305;0,0034;-0,0012;-6,21;3,13;1,63
29,023660,0264;-0,0015;0,002;-6,13;2,82;1,57
29,034390,0264;-0,0015;0,002;-6,13;2,82;1,57
29,045340,0271;0,0037;-0,0083;-6,15;2,69;1,53
29,056060,0271;0,0037;-0,0083;-6,15;2,69;1,53
29,064250,0288;0,001;-0,0044;-6,05;3,08;1,68
29,075270,0288;0,001;-0,0044;-6,05;3,08;1,68
29,086330,031;0,0037;-0,0012;-6,02;2,77;1,68
29,098280,031;0,0037;-0,0012;-6,02;2,77;1,68
29,109720,0249;-0,0061;0,0046;-5,75;2,96;1,69
29,118110,0249;-0,0061;0,0046;-5,75;2,96;1,69
29,126410,0278;0,0034;-0,0068;-6,37;2,9;1,6
29,137260,0278;0,0034;-0,0068;-6,37;2,9;1,6
29,146670,0283;-0,0046;-0,01;-5,82;2,99;1,52
29,155940,0283;-0,0046;-0,01;-5,82;2,99;1,52
29,165120,0276;0,0032;0,0017;-6,16;2,87;1,52
29,174830,0276;0,0032;0,0017;-6,16;2,87;1,52
29,184630,0281;-0,0027;0;-6,01;2,93;1,6
29,196130,0281;-0,0027;0;-6,01;2,93;1,6
29,206020,0271;0,0034;0,0032;-6,19;2,96;1,52
29,216340,0271;0,0034;0,0032;-6,19;2,96;1,52
29,226010,0366;-0,0032;-0,0083;-6;2,89;1,76
29,235480,0366;-0,0032;-0,0083;-6;2,89;1,76
29,244130,0281;0,0032;-0,0012;-6,15;2,95;1,69
29,253070,0281;0,0032;-0,0012;-6,15;2,95;1,69
29,261510,0356;-0,0046;-0,0015;-5,9;2,95;1,68
29,270280,0356;-0,0046;-0,0015;-5,9;2,95;1,68
29,279010,0356;-0,0046;-0,0015;-5,9;2,95;1,68
29,287090,02;0,0007;-0,0017;-6,33;3,1;1,52
29,295920,02;0,0007;-0,0017;-6,33;3,1;1,52
29,304740,0308;0,0024;-0,0034;-5,81;2,92;1,62
29,31310,0308;0,0024;-0,0034;-5,81;2,92;1,62
29,321620,0308;0,0024;-0,0034;-5,81;2,92;1,62
29,330290,0327;-0,0012;-0,0029;-5,79;2,9;1,58
29,339290,0327;-0,0012;-0,0029;-5,79;2,9;1,58
29,347530,03;0,002;-0,0049;-6,21;2,97;1,73
29,355910,03;0,002;-0,0049;-6,21;2,97;1,73
29,364160,0229;0,0015;-0,0034;-6,08;2,85;1,79
29,372870,0229;0,0015;-0,0034;-6,08;2,85;1,79
29,381010,0283;0,0068;-0,0005;-5,95;2,79;1,62
29,399760,0283;0,0068;-0,0005;-5,95;2,79;1,62
29,420420,0305;-0,0044;-0,0046;-6,02;2,91;1,73
29,432620,0305;-0,0044;-0,0046;-6,02;2,91;1,73
29,44280,0305;-0,0044;-0,0046;-6,02;2,91;1,73
29,452590,0283;-0,0012;-0,0017;-6,18;2,85;1,59
29,462070,0249;0,0046;0;-5,98;2,84;1,67
29,472030,0249;0,0046;0;-5,98;2,84;1,67
29,481860,0249;0,0046;0;-5,98;2,84;1,67
29,492490,0271;-0,0024;-0,0066;-6,19;2,76;1,59
29,504750,0271;-0,0024;-0,0066;-6,19;2,76;1,59
29,514630,0249;0,0056;-0,0027;-6,04;2,98;1,52
29,525260,0266;0,0037;-0,0056;-6,1;2,9;1,6
29,53520,0266;0,0037;-0,0056;-6,1;2,9;1,6
29,544440,0308;0,0017;-0,0103;-5,9;3,04;1,63
29,554230,0308;0,0017;-0,0103;-5,9;3,04;1,63
29,56430,0308;0,0017;-0,0103;-5,9;3,04;1,63
29,57320,0266;0,0027;-0,0066;-6,12;3,08;1,53
29,583260,0212;-0,0034;-0,0044;-6,08;2,82;1,82
29,594120,0212;-0,0034;-0,0044;-6,08;2,82;1,82
29,603930,0212;-0,0034;-0,0044;-6,08;2,82;1,82
29,616040,0276;0,002;-0,0073;-6,13;2,94;1,66
29,624640,0276;0,002;-0,0073;-6,13;2,94;1,66
29,633480,0303;0,0063;0;-6,14;3,11;1,67
29,642070,0303;-0,0024;-0,009;-6,11;3,02;1,59
29,65040,0303;-0,0024;-0,009;-6,11;3,02;1,59
29,659770,0303;-0,0024;-0,009;-6,11;3,02;1,59
29,668720,0293;0,0024;-0,0054;-6,41;2,88;1,66
29,680990,0288;-0,002;-0,0044;-6,03;2,93;1,66
29,69130,0288;-0,002;-0,0044;-6,03;2,93;1,66
29,700960,0288;-0,002;-0,0044;-6,03;2,93;1,66
29,710660,0298;-0,0012;-0,0049;-6,11;3,02;1,66
29,719970,0298;-0,0012;-0,0049;-6,11;3,02;1,66
29,732520,0278;0,0012;0,0061;-5,93;2,92;1,64
29,741180,0278;0,0012;0,0061;-5,93;2,92;1,64
29,749610,0247;0,0017;-0,0076;-5,95;2,89;1,69
29,758260,0247;0,0017;-0,0076;-5,95;2,89;1,69
29,767340,0315;-0,0005;0,0061;-6,06;2,99;1,72
29,776330,0315;-0,0005;0,0061;-6,06;2,99;1,72
29,787710,0232;-0,0012;-0,0195;-5,95;3,09;1,67
29,797010,0232;-0,0012;-0,0195;-5,95;3,09;1,67
29,805710,0232;-0,0012;-0,0195;-5,95;3,09;1,67
29,816120,0276;-0,0007;-0,0029;-6,2;2,92;1,57
29,82530,0259;0,0034;-0,0012;-6,13;3,12;1,48
29,837270,0259;0,0034;-0,0012;-6,13;3,12;1,48
29,845990,0273;-0,0007;-0,0078;-6,15;2,82;1,61
29,85510,0273;-0,0007;-0,0078;-6,15;2,82;1,61
29,863310,0259;-0,0012;-0,0027;-6,05;2,95;1,69
29,871720,0259;-0,0012;-0,0027;-6,05;2,95;1,69
29,880030,0259;-0,0012;-0,0027;-6,05;2,95;1,69
29,888250,0237;0,0037;-0,0093;-6,02;2,81;1,57
29,896930,0237;0,0037;-0,0093;-6,02;2,81;1,57
29,90640,0339;0,0032;0,0007;-6,08;2,88;1,46
29,916180,0339;0,0032;0,0007;-6,08;2,88;1,46
29,925790,0264;-0,0027;-0,0037;-6,01;3;1,52
29,936130,0264;-0,0027;-0,0037;-6,01;3;1,52
29,945720,0278;0,0037;-0,0098;-6,11;2,89;1,65
29,955120,0278;0,0037;-0,0098;-6,11;2,89;1,65
29,964780,0278;0,0012;-0,0088;-6,08;3,05;1,47
29,974940,0278;0,0012;-0,0088;-6,08;3,05;1,47
29,983930,031;-0,0027;-0,0085;-6,11;2,95;1,56
29,994150,031;-0,0027;-0,0085;-6,11;2,95;1,56
30,003680,0278;0,0044;-0,0027;-6,05;2,85;1,7
30,013290,0278;0,0044;-0,0027;-6,05;2,85;1,7
30,024220,033;0,001;0,0017;-6,08;2,98;1,77
30,033220,033;0,001;0,0017;-6,08;2,98;1,77
30,041950,0283;-0,0002;-0,0005;-6,15;2,72;1,69
30,05410,0283;-0,0002;-0,0005;-6,15;2,72;1,69
30,062310,0283;-0,0002;-0,0005;-6,15;2,72;1,69
30,071230,0273;0,0007;-0,01;-6,05;3,03;1,62
30,080020,0273;0,0007;-0,01;-6,05;3,03;1,62
30,089040,0283;0,0027;-0,0007;-6,04;2,82;1,66
30,097860,0283;0,0027;-0,0007;-6,04;2,82;1,66
30,106340,0308;-0,0049;-0,001;-6,15;2,85;1,71
30,114740,0308;-0,0049;-0,001;-6,15;2,85;1,71
30,126320,0308;-0,0029;-0,019;-6,02;2,68;1,69
30,135190,0308;-0,0029;-0,019;-6,02;2,68;1,69
30,143730,0188;0,0027;-0,0051;-5,92;2,66;1,53
30,152440,0188;0,0027;-0,0051;-5,92;2,66;1,53
30,161070,0188;0,0027;-0,0051;-5,92;2,66;1,53
30,16940,0339;0,0015;-0,0037;-5,86;2,85;1,34
30,178420,0339;0,0015;-0,0037;-5,86;2,85;1,34
30,187060,0291;0;0,0037;-5,98;3,08;1,66
30,196710,0291;0;0,0037;-5,98;3,08;1,66
30,205290,0232;-0,0046;-0,0061;-6,09;2,9;1,4
30,213440,0232;-0,0046;-0,0061;-6,09;2,9;1,4
30,223850,0283;0,0027;-0,0076;-6,17;3,06;1,62
30,232810,0283;0,0027;-0,0076;-6,17;3,06;1,62
30,240810,0242;0,0005;-0,0015;-5,96;2,93;1,64
30,248250,0242;0,0005;-0,0015;-5,96;2,93;1,64
30,256910,0242;0,0005;-0,0015;-5,96;2,93;1,64
30,264830,0244;0,0022;-0,0125;-6,05;3;1,72
30,27290,0244;0,0022;-0,0125;-6,05;3;1,72
30,280890,0244;0,0022;-0,0125;-6,05;3;1,72
30,289140,03;0,0022;-0,0112;-6,25;2,79;1,71
30,298420,03;0,0022;-0,0112;-6,25;2,79;1,71
30,308490,0266;-0,0044;0,002;-5,85;3;1,6
30,318180,0266;-0,0044;0,002;-5,85;3;1,6
30,32770,0208;0,0063;-0,0103;-6,16;2,91;1,71
30,340980,0208;0,0063;-0,0103;-6,16;2,91;1,71
30,350860,0308;-0,001;0;-6,15;2,84;1,53
30,360320,0308;-0,001;0;-6,15;2,84;1,53
30,369810,0276;0,0049;-0,0054;-6,12;2,9;1,63
30,38640,0295;-0,0032;-0,0107;-6,21;2,79;1,67
30,404440,0271;0,0037;-0,0049;-6,08;3;1,58
30,413520,0271;0,0037;-0,0049;-6,08;3;1,58
30,427760,0264;-0,0012;-0,001;-5,95;2,93;1,61
30,440680,0264;-0,0012;-0,001;-5,95;2,93;1,61
30,453630,0269;0,0068;-0,0112;-5,98;2,85;1,6
30,466190,0308;0,0051;-0,0034;-6;2,98;1,49
30,478080,0308;0,0051;-0,0034;-6;2,98;1,49
30,489450,032;0,0037;-0,0046;-5,98;2,95;1,59
30,502430,032;0,0037;-0,0046;-5,98;2,95;1,59
30,514490,0312;-0,0005;-0,0095;-5,87;3,12;1,62
30,526180,0312;-0,0005;-0,0095;-5,87;3,12;1,62
30,537590,0291;-0,0002;-0,0042;-5,87;2,98;1,6
30,548950,0222;0,0012;0,0068;-6,11;2,89;1,73
30,56030,0222;0,0012;0,0068;-6,11;2,89;1,73
30,569040,0286;0,0037;0,0044;-6,16;3,02;1,63
30,581010,0315;0,001;0,002;-6,05;2,85;1,44
30,592680,0315;0,001;0,002;-6,05;2,85;1,44
30,60410,0305;0,002;-0,0054;-6,33;2,92;1,47
30,612850,0305;0,002;-0,0054;-6,33;2,92;1,47
30,624210,0305;0,002;-0,0054;-6,33;2,92;1,47
30,63460,0293;-0,0061;-0,0022;-5,97;2,89;1,56
30,643650,0293;-0,0061;-0,0022;-5,97;2,89;1,56
30,652160,0291;0,0046;-0,0083;-6,18;2,82;1,6
30,663770,0227;0,0034;-0,0098;-5,96;2,71;1,66
30,672630,0227;0,0034;-0,0098;-5,96;2,71;1,66
30,681550,0303;0,0044;-0,0142;-6,19;3,01;1,65
30,691520,0303;0,0044;-0,0142;-6,19;3,01;1,65
30,704480,0342;0,0083;-0,0076;-6,05;2,83;1,69
30,713990,0342;0,0083;-0,0076;-6,05;2,83;1,69
30,724420,0342;0,0083;-0,0076;-6,05;2,83;1,69
30,734510,0298;-0,0015;-0,0127;-5,89;2,89;1,7
30,743420,0312;-0,0044;0,001;-6,02;3;1,55
30,752830,0312;-0,0044;0,001;-6,02;3;1,55
30,761690,033;0,0007;-0,0078;-6,17;3,02;1,6
30,770640,033;0,0007;-0,0078;-6,17;3,02;1,6
30,779550,033;0,0007;-0,0078;-6,17;3,02;1,6
30,790040,0239;0,002;-0,0007;-6,05;2,95;1,62
30,800060,0239;0,002;-0,0007;-6,05;2,95;1,62
30,808660,0254;0,0027;-0,0046;-6,15;3,16;1,49
30,816590,0254;0,0027;-0,0046;-6,15;3,16;1,49
30,825250,0269;0,0022;0,0015;-5,85;2,82;1,69
30,835710,0269;0,0022;0,0015;-5,85;2,82;1,69
30,844580,0276;-0,002;-0,0049;-5,97;2,85;1,72
30,853170,0276;-0,002;-0,0049;-5,97;2,85;1,72
30,864720,0239;0,001;-0,0107;-6,04;2,8;1,69
30,873370,0239;0,001;-0,0107;-6,04;2,8;1,69
30,881810,0239;0,001;-0,0107;-6,04;2,8;1,69
30,890380,0269;0,0061;0,0017;-6,02;2,87;1,76
30,901470,0269;0,0061;0,0017;-6,02;2,87;1,76
30,909790,0244;-0,0015;-0,0117;-5,83;2,96;1,56
30,917620,0244;-0,0015;-0,0117;-5,83;2,96;1,56
30,925350,0217;0,002;-0,0125;-6,04;2,85;1,67
30,933440,0217;0,002;-0,0125;-6,04;2,85;1,67
30,941030,0317;0,0024;0,0027;-6,18;2,77;1,58
30,948910,0317;0,0024;0,0027;-6,18;2,77;1,58
30,956690,0317;0,0024;0,0027;-6,18;2,77;1,58
30,964850,03;-0,0022;-0,0059;-5,98;3,01;1,54
30,972660,03;-0,0022;-0,0059;-5,98;3,01;1,54
30,980670,03;-0,0022;-0,0059;-5,98;3,01;1,54
30,988620,0271;0,0027;-0,0037;-6,35;2,93;1,58
30,99730,0271;0,0027;-0,0037;-6,35;2,93;1,58
31,005210,0349;-0,002;0,0044;-5,98;2,98;1,58
31,014810,0349;-0,002;0,0044;-5,98;2,98;1,58
31,02270,0349;-0,002;0,0044;-5,98;2,98;1,58
31,030730,0283;0,0078;-0,0054;-6,02;2,78;1,6
31,039780,0283;0,0078;-0,0054;-6,02;2,78;1,6
31,047550,032;0,0012;0,0015;-6,02;2,86;1,62
31,055690,032;0,0012;0,0015;-6,02;2,86;1,62
31,06410,0337;0,0032;0,0042;-6,01;2,91;1,59
31,072710,0337;0,0032;0,0042;-6,01;2,91;1,59
31,081750,0337;0,0032;0,0042;-6,01;2,91;1,59
31,091320,0251;-0,0068;0;-5,9;2,96;1,7
31,104140,0251;-0,0068;0;-5,9;2,96;1,7
31,114060,0291;0,0027;-0,0049;-6,14;2,78;1,53
31,123110,0291;0,0027;-0,0049;-6,14;2,78;1,53
31,133980,0254;-0,0029;-0,0117;-5,96;2,91;1,56
31,143460,0332;0,0022;-0,0056;-6,08;2,89;1,55
31,153530,0332;0,0022;-0,0056;-6,08;2,89;1,55
31,162650,033;0,0066;-0,0005;-6,11;3,06;1,6
31,172620,033;0,0066;-0,0005;-6,11;3,06;1,6
31,181090,033;0,0066;-0,0005;-6,11;3,06;1,6
31,189220,0251;-0,0042;-0,0066;-6,09;2,86;1,6
31,197650,0251;-0,0042;-0,0066;-6,09;2,86;1,6
31,206410,0244;0;0,0012;-5,89;3,02;1,5
31,214970,0244;0;0,0012;-5,89;3,02;1,5
31,223550,0244;0;0,0012;-5,89;3,02;1,5
31,232010,0308;0,0039;0,0044;-6,18;2,95;1,47
31,24190,0308;0,0039;0,0044;-6,18;2,95;1,47
31,249980,0315;0;-0,01;-6,05;3,01;1,62
31,258720,0315;0;-0,01;-6,05;3,01;1,62
31,266230,0251;0,0024;-0,002;-5,93;2,95;1,66
31,274090,0251;0,0024;-0,002;-5,93;2,95;1,66
31,281670,0251;0,0024;-0,002;-5,93;2,95;1,66
31,292790,0303;0,0015;0,0012;-6,12;2,91;1,53
31,305060,0286;0,0071;-0,0042;-6,19;2,97;1,61
31,320720,0286;0,0071;-0,0042;-6,19;2,97;1,61
31,338350,0271;0,0007;-0,0015;-5,97;2,91;1,5
31,351740,0234;-0,0029;-0,0007;-6,04;2,89;1,42
31,360140,0234;-0,0029;-0,0007;-6,04;2,89;1,42
31,368750,0312;0,0051;-0,0044;-5,95;2,91;1,37
31,377310,0312;0,0051;-0,0044;-5,95;2,91;1,37
31,384740,0298;-0,0005;-0,01;-6,16;2,91;1,51
31,393490,0298;-0,0005;-0,01;-6,16;2,91;1,51
31,402060,0298;-0,0005;-0,01;-6,16;2,91;1,51
31,410790,0278;-0,0002;-0,0103;-5,98;2,98;1,66
31,647190,0261;-0,0005;-0,0046;-6,02;2,91;1,56
31,709530,03;-0,0005;0,0029;-5,93;2,92;1,45
31,726040,0232;0,0022;-0,0022;-6,17;3,01;1,66
31,735890,0232;0,0022;-0,0022;-6,17;3,01;1,66
31,744990,0308;0,0007;0,0005;-6,01;2,94;1,59
31,760420,0308;0,0007;0,0005;-6,01;2,94;1,59
31,768990,0237;-0,0051;-0,0017;-5,98;2,79;1,4
31,778720,0237;-0,0051;-0,0017;-5,98;2,79;1,4
31,78750,0317;0,0005;-0,0134;-6,12;2,85;1,63
31,79650,0317;0,0005;-0,0134;-6,12;2,85;1,63
31,805460,0225;-0,0005;-0,0054;-6,18;2,72;1,6
31,814470,0225;-0,0005;-0,0054;-6,18;2,72;1,6
31,823770,0305;0,0051;-0,0098;-5,97;2,54;1,6
31,834250,0305;0,0051;-0,0098;-5,97;2,54;1,6
31,845480,0305;0,0051;-0,0098;-5,97;2,54;1,6
31,862030,0227;-0,0032;-0,0005;-6,04;2,69;1,54
31,877290,0273;0,0054;-0,0088;-6,15;2,84;1,48
31,88740,032;0,0037;-0,0095;-6,25;2,73;1,73
31,898860,032;0,0037;-0,0095;-6,25;2,73;1,73
31,909150,0261;0,0042;0,0046;-6,16;3,01;1,66
31,91930,0261;0,0042;0,0046;-6,16;3,01;1,66
31,930440,0281;-0,0049;0,0005;-6,19;3,08;1,65
31,939620,0281;-0,0049;0,0005;-6,19;3,08;1,65
31,948730,0269;0,0029;-0,0085;-5,98;2,79;1,72
31,963860,0251;0,002;-0,0051;-6,21;2,83;1,65
31,972910,0251;0,002;-0,0051;-6,21;2,83;1,65
31,988440,0234;0,0034;-0,011;-6,26;2,86;1,73
32,00810,032;0,0017;-0,0044;-5,8;2,72;1,66
32,018780,032;0,0017;-0,0044;-5,8;2,72;1,66
32,03410,0259;0,0081;-0,0046;-6,47;2,95;1,61
32,044860,0315;-0,0193;-0,0164;-5,5;3,33;1,91
32,055360,0315;-0,0193;-0,0164;-5,5;3,33;1,91
32,071090,021;0,0012;0,0034;-6,48;2,48;1,41
32,081260,021;0,0012;0,0034;-6,48;2,48;1,41
32,091680,0281;0,002;0,0005;-6,06;2,98;1,53
32,101970,0281;0,002;0,0005;-6,06;2,98;1,53
32,111580,0283;0,0005;-0,0078;-6,18;2,8;1,72
32,121510,0283;0,0005;-0,0078;-6,18;2,8;1,72
32,136220,0176;0,0081;0,0054;-6,18;2,92;1,79
32,146580,0322;-0,0103;-0,0044;-6,18;2,85;1,7
32,157690,0322;-0,0103;-0,0044;-6,18;2,85;1,7
32,173780,0256;0,0015;-0,009;-6,02;2,7;1,77
32,191250,0303;0,0015;-0,0095;-5,99;2,72;1,59
32,201870,0291;0,0042;-0,0105;-6,06;2,83;1,59
32,212650,0291;0,0042;-0,0105;-6,06;2,83;1,59
32,22370,0269;-0,0046;0,0017;-6,21;2,76;1,77
32,234760,0269;-0,0046;0,0017;-6,21;2,76;1,77
32,245660,0303;0,0037;0,0042;-6,05;2,82;1,67
32,257040,0303;0,0037;0,0042;-6,05;2,82;1,67
32,268580,0291;0,0005;-0,0051;-5,98;2,8;1,64
32,28540,0291;0,0005;-0,0051;-5,98;2,8;1,64
32,296920,0237;-0,0042;-0,0137;-6,19;2,76;1,66
32,307960,0271;0,002;0,0024;-5,94;2,9;1,65
32,323570,0247;-0,0027;0,0029;-6,15;2,8;1,69
32,340940,0247;-0,0027;0,0029;-6,15;2,8;1,69
32,357490,0298;0,0051;0,0007;-6,21;2,88;1,66
32,373420,03;0,0007;-0,009;-5,99;2,83;1,54
32,389840,0293;0,0022;-0,0054;-6,07;3;1,61
32,40050,0293;0,0022;-0,0054;-6,07;3;1,61
32,41020,0276;0,0012;-0,0042;-6,09;2,93;1,63
32,424570,0291;-0,0051;-0,0054;-6;2,98;1,52
32,433780,0291;-0,0051;-0,0054;-6;2,98;1,52
32,443280,0261;-0,0012;-0,012;-6,15;2,89;1,62
32,452740,0261;-0,0012;-0,012;-6,15;2,89;1,62
32,462820,0315;0,0017;-0,0061;-6,04;2,79;1,5
32,472390,0315;0,0017;-0,0061;-6,04;2,79;1,5
32,482230,0283;0,0056;-0,009;-6,06;3,04;1,58
32,497540,0283;0,0056;-0,009;-6,06;3,04;1,58
32,512060,0312;-0,0012;-0,0051;-6,05;3,08;1,64
32,522290,0312;0,0024;-0,012;-6,04;2,92;1,79
32,531850,022;0,0024;-0,012;-6,04;2,92;1,79
32,543050,022;0,0024;-0,012;-6,04;2,92;1,79
32,55240,0293;-0,0024;-0,0066;-5,89;2,73;1,69
32,561680,0312;0,0027;-0,011;-6,17;2,97;1,56
32,57080,0312;0,0027;-0,011;-6,17;2,97;1,56
32,579950,0312;0,0027;-0,011;-6,17;2,97;1,56
32,588890,0293;0,0049;-0,0032;-6,07;3,06;1,61
32,598760,0293;0,0049;-0,0032;-6,07;3,06;1,61
32,615920,0264;0,0027;-0,0081;-6,21;2,94;1,6
32,627460,0259;0,002;-0,001;-6,12;3,21;1,53
32,638360,0259;0,002;-0,001;-6,12;3,21;1,53
32,64820,032;0,0073;-0,0054;-6,01;3,04;1,63
32,662630,032;0,0073;-0,0054;-6,01;3,04;1,63
32,672910,0339;-0,0017;-0,0093;-5,98;2,91;1,5
32,683030,0244;-0,002;-0,0059;-6,24;2,91;1,57
32,692760,0244;-0,002;-0,0059;-6,24;2,91;1,57
32,701750,0244;-0,002;-0,0059;-6,24;2,91;1,57
32,717230,0259;-0,0054;-0,0015;-6,08;3,02;1,59
32,727090,0283;0,0002;-0,0002;-5,93;2,91;1,53
32,736180,0283;0,0002;-0,0002;-5,93;2,91;1,53
32,746650,0288;-0,0017;0,002;-6,03;2,84;1,69
32,755890,0288;-0,0017;0,002;-6,03;2,84;1,69
32,764650,0334;0,0024;-0,0039;-6,15;2,9;1,64
32,77340,0334;0,0024;-0,0039;-6,15;2,9;1,64
32,782260,0334;0,0024;-0,0039;-6,15;2,9;1,64
32,790790,0256;0,0017;-0,0005;-6,14;2,98;1,76
32,799640,0256;0,0017;-0,0005;-6,14;2,98;1,76
32,813520,0283;0,0042;-0,011;-6,02;2,97;1,53
32,828280,0164;-0,0012;0,0005;-6,02;2,92;1,6
32,837220,0164;-0,0012;0,0005;-6,02;2,92;1,6
32,846430,0247;-0,0046;-0,0068;-6,14;2,97;1,56
32,855290,0247;-0,0046;-0,0068;-6,14;2,97;1,56
32,863770,0247;-0,0046;-0,0068;-6,14;2,97;1,56
32,872340,0269;0,0027;-0,0042;-6,05;2,91;1,57
32,88090,0269;0,0027;-0,0042;-6,05;2,91;1,57
32,889640,0286;0,0024;0,0002;-5,98;2,92;1,52
32,898510,0286;0,0024;0,0002;-5,98;2,92;1,52
32,907270,022;-0,001;-0,001;-6,14;3,08;1,64
32,916450,022;-0,001;-0,001;-6,14;3,08;1,64
32,932070,0259;0,001;-0,0073;-6,19;2,94;1,66
32,94090,0259;0,001;-0,0073;-6,19;2,94;1,66
32,951080,0374;0,0042;-0,0073;-6,3;3;1,85
32,964490,0276;-0,0061;-0,0027;-5,91;2,89;1,71
32,973560,0276;-0,0061;-0,0027;-5,91;2,89;1,71
32,982290,0276;-0,0061;-0,0027;-5,91;2,89;1,71
32,992270,0303;0,0022;0,0015;-6,16;2,94;1,69
33,002730,0303;0,0022;0,0015;-6,16;2,94;1,69
33,013020,0212;-0,0002;-0,0061;-5,97;2,95;1,59
33,023960,0212;-0,0002;-0,0061;-5,97;2,95;1,59
33,042060,0276;0,0039;0,0081;-6,02;3,02;1,75
33,058770,0217;-0,0002;-0,0017;-6,04;2,98;1,79
33,07590,0259;0,0024;-0,0032;-6,08;2,86;1,73
33,0920,0266;0,0059;-0,0076;-6,06;2,89;1,63
33,108050,0312;0;-0,009;-5,98;2,82;1,55
33,122360,0312;0;-0,009;-5,98;2,82;1,55
33,136910,0212;0,0039;-0,0005;-5,93;2,89;1,63
33,152040,0334;0,0005;0;-6,23;2,78;1,6
33,168950,0322;0,0027;-0,01;-6,22;2,87;1,8
33,1870,0322;0,0027;-0,01;-6,22;2,87;1,8
33,196730,0283;0,0012;-0,0115;-5,95;2,95;1,62
33,20630,0298;0,0007;-0,0151;-6,05;2,88;1,44
33,215790,0298;0,0007;-0,0151;-6,05;2,88;1,44
33,227830,0342;0,0044;-0,0034;-5,97;3,02;1,66
33,24560,0251;-0,0022;-0,0017;-5,92;2,94;1,63
33,261320,0251;-0,0022;-0,0017;-5,92;2,94;1,63
33,275660,0247;0,0044;0,0063;-6;3;1,41
33,289890,0264;0,0002;-0,0093;-6,43;3,11;1,63
33,303870,0298;0;-0,0015;-6,05;2,96;1,57
33,313160,0298;0;-0,0015;-6,05;2,96;1,57
33,32250,0298;0;-0,0015;-6,05;2,96;1,57
33,331660,0254;0,0015;0,0049;-6,11;2,97;1,7
33,34110,0254;0,0015;0,0049;-6,11;2,97;1,7
33,349790,0237;0,0029;0,0051;-6,12;2,87;1,61
33,359950,0237;0,0029;0,0051;-6,12;2,87;1,61
33,376490,0242;0,0042;-0,012;-6,12;2,86;1,81
33,387030,0249;0,001;-0,0027;-6,18;2,8;1,53
33,39810,0249;0,001;-0,0027;-6,18;2,8;1,53
33,408950,03;-0,0034;-0,0034;-6,14;2,78;1,75
33,41970,03;-0,0034;-0,0034;-6,14;2,78;1,75
33,433910,0225;0,002;-0,0115;-5,95;2,89;1,58
33,444990,0347;0,0029;-0,0022;-6,08;2,84;1,63
33,455270,0347;0,0029;-0,0022;-6,08;2,84;1,63
33,466210,0251;-0,0005;-0,0125;-6,14;2,89;1,53
33,482320,0251;-0,0005;-0,0125;-6,14;2,89;1,53
33,491730,03;-0,0024;-0,0034;-5,98;2,9;1,44
33,49970,03;-0,0024;-0,0034;-5,98;2,9;1,44
33,508660,0312;0,002;0,002;-6;2,93;1,64
33,51780,0312;0,002;0,002;-6;2,93;1,64
33,526480,0259;-0,0015;-0,0066;-6,15;2,88;1,6
33,535310,0259;-0,0015;-0,0066;-6,15;2,88;1,6
33,544020,0259;-0,0015;-0,0066;-6,15;2,88;1,6
33,552920,0261;0,001;-0,0024;-5,95;3,03;1,5
33,561110,0261;0,001;-0,0024;-5,95;3,03;1,5
33,572110,0295;0,002;-0,0073;-6,09;2,85;1,69
33,585750,0295;0,002;-0,0073;-6,09;2,85;1,69
33,595230,0217;0,002;-0,0093;-6,03;2,85;1,46
33,603740,0276;-0,0002;-0,0093;-6,11;2,87;1,63
33,612090,0276;-0,0002;-0,0093;-6,11;2,87;1,63
33,620710,0276;-0,0002;-0,0093;-6,11;2,87;1,63
33,628930,0283;-0,0024;-0,0032;-6,13;3,07;1,64
33,637440,0283;-0,0024;-0,0032;-6,13;3,07;1,64
33,645650,0247;0,0012;-0,0042;-5,83;2,79;1,63
33,653930,0247;0,0012;-0,0042;-5,83;2,79;1,63
33,663780,0247;0,0012;-0,0042;-5,83;2,79;1,63
33,672920,0212;-0,002;-0,0164;-6,09;2,85;1,6
33,687020,0293;-0,0034;-0,0059;-5,98;2,82;1,66
33,696380,0293;-0,0034;-0,0059;-5,98;2,82;1,66
33,705150,0293;-0,0034;-0,0059;-5,98;2,82;1,66
33,713640,0339;0,0068;-0,0046;-6,04;3,03;1,63
33,722420,0339;0,0068;-0,0046;-6,04;3,03;1,63
33,735830,0276;-0,0007;-0,0088;-6,14;2,83;1,67
33,744690,0276;0,0012;-0,0042;-6,02;2,99;1,58
33,753940,0276;0,0012;-0,0042;-6,02;2,99;1,58
33,762440,0276;0,0012;-0,0042;-6,02;2,99;1,58
33,775230,0273;0,0037;0,001;-5,98;2,8;1,78
33,79160,0281;0,0061;-0,0029;-6,12;2,85;1,63
33,808890,032;-0,0022;0,0027;-5,85;2,76;1,53
33,825760,032;-0,0022;0,0027;-5,85;2,76;1,53
33,841430,0276;0,0029;0,0132;-6,02;2,87;1,66
33,856770,0239;0,0027;-0,0164;-6,07;3,05;1,77
33,873140,0239;0,0083;0,0071;-6;2,82;1,78
33,88890,0239;0,0083;0,0071;-6;2,82;1,78
33,903580,0317;0,001;0,0027;-6;2,9;1,56
33,917270,0356;-0,0024;-0,0083;-6,2;2,79;1,57
33,930720,0342;0,0002;-0,0024;-6,05;2,86;1,55
33,940530,0342;0,0002;-0,0024;-6,05;2,86;1,55
33,949110,0256;0,0002;-0,0093;-6,06;2,84;1,87
33,958220,0256;0,0002;-0,0093;-6,06;2,84;1,87
33,966940,0251;0,0098;0,0042;-6,14;2,88;1,47
33,976970,0251;0,0098;0,0042;-6,14;2,88;1,47
33,986060,0251;0,0098;0,0042;-6,14;2,88;1,47
33,996090,0315;-0,0059;-0,0024;-6,09;2,89;1,51
34,009970,0325;0,0056;0,0007;-6,21;3;1,53
34,019340,0325;0,0056;0,0007;-6,21;3;1,53
34,032420,0276;-0,0017;-0,0029;-6,01;2,92;1,66
34,046040,0205;0,002;-0,0046;-6,12;2,9;1,68
34,061260,0205;0,002;-0,0046;-6,12;2,9;1,68
34,075720,0259;0,0007;-0,0083;-6,03;2,8;1,57
34,089340,0259;-0,0007;0,0024;-5,98;2,79;1,56
34,103550,0259;-0,0007;0,0024;-5,98;2,79;1,56
34,118360,0273;-0,0002;0,0015;-5,89;2,86;1,75
34,132240,0264;0,0024;-0,0066;-6,14;2,77;1,59
34,141360,0264;0,0024;-0,0066;-6,14;2,77;1,59
34,15010,0242;-0,0039;-0,0044;-6,07;2,8;1,66
34,160030,0242;-0,0039;-0,0044;-6,07;2,8;1,66
34,170540,0327;0,0034;-0,0095;-5,89;2,83;1,47
34,182220,0327;0,0034;-0,0095;-5,89;2,83;1,47
34,192830,0225;0,0034;-0,0024;-5,91;2,77;1,73
34,208510,0225;0,0034;-0,0024;-5,91;2,77;1,73
34,223950,0273;-0,0029;-0,0081;-6,08;2,85;1,39
34,239710,0278;0,0068;-0,0054;-6,15;2,89;1,79
34,25510,03;0,0059;0,0022;-6,15;3,02;1,42
34,269580,0278;-0,0039;0,0024;-6;2,84;1,75
34,283210,0259;-0,0088;0,0051;-6,03;2,91;1,65
34,299140,0259;-0,0088;0,0051;-6,03;2,91;1,65
34,315540,0286;0,0034;0,0024;-6,18;2,95;1,54
34,32690,0278;0,0012;-0,012;-6,18;2,95;1,63
34,34190,0278;0,0012;-0,012;-6,18;2,95;1,63
34,352630,0332;0,0007;-0,0098;-5,82;2,95;1,63
34,368950,03;0,0032;-0,0042;-5,85;2,82;1,6
34,383890,0215;0,0032;-0,0037;-5,92;3,15;1,83
34,399840,0215;0,0032;-0,0037;-5,92;3,15;1,83
34,415140,0266;0,0037;-0,0103;-6,11;2,8;1,6
34,43030,0281;0,0002;-0,009;-6,04;3,02;1,61
34,445230,0281;0,0007;-0,0132;-5,99;2,96;1,73
34,454710,0281;0,0007;-0,0132;-5,99;2,96;1,73
34,464470,0239;0,0037;-0,0076;-6,01;3,1;1,5
34,47780,0239;0,0037;-0,0076;-6,01;3,1;1,5
34,491570,0273;0,0005;0;-6,23;3,04;1,63
34,501040,0273;0,0005;0;-6,23;3,04;1,63
34,510830,0229;-0,0022;0,001;-5,99;2,92;1,7
34,524040,0229;-0,0022;0,001;-5,99;2,92;1,7
34,533290,0244;0,002;-0,0073;-6,22;2,82;1,6
34,542710,0276;0,0027;-0,0088;-6,04;2,89;1,46
34,558180,0276;0,0027;-0,0088;-6,04;2,89;1,46
34,568920,0208;0,0037;-0,0081;-5,76;2,98;1,55
34,579550,0208;0,0037;-0,0081;-5,76;2,98;1,55
34,588960,0264;0,0024;0,001;-6,07;2,9;1,66
34,601360,0264;0,0024;0,001;-6,07;2,9;1,66
34,610910,0293;0;-0,0083;-6,04;2,95;1,58
34,621560,0293;0;-0,0083;-6,04;2,95;1,58
34,631740,0271;-0,0017;-0,0073;-6,14;2,95;1,66
34,642270,0271;-0,0017;-0,0073;-6,14;2,95;1,66
34,651650,0266;-0,0002;-0,001;-6,05;2,89;1,56
34,662660,0266;-0,0002;-0,001;-6,05;2,89;1,56
34,677270,0271;0,0032;0,0015;-6,1;2,95;1,6
34,686710,0286;0,0005;-0,0056;-6,05;2,88;1,61
34,696380,0286;0,0005;-0,0056;-6,05;2,88;1,61
34,705210,0249;-0,0029;-0,0093;-5,72;2,92;1,5
34,715590,0249;-0,0029;-0,0093;-5,72;2,92;1,5
34,726330,0249;-0,0029;-0,0093;-5,72;2,92;1,5
34,736430,0305;0,0027;-0,002;-6,21;2,89;1,6
34,746230,0305;0,0027;-0,002;-6,21;2,89;1,6
34,760280,0242;0,0007;-0,0073;-6,1;2,81;1,56
34,77470,0271;-0,0012;-0,002;-5,88;2,79;1,56
34,789140,0271;0,0005;-0,0005;-6,04;2,94;1,59
34,80410,033;0,0012;0,0002;-6,09;2,95;1,66
34,817830,033;0,0012;0,0002;-6,09;2,95;1,66
34,831510,0286;0,0039;-0,0032;-6,01;2,98;1,73
34,844890,0286;0,0039;-0,0032;-6,01;2,98;1,73
34,854190,0322;-0,0032;-0,0125;-5,89;2,94;1,69
34,862860,0322;-0,0032;-0,0125;-5,89;2,94;1,69
34,871460,0305;-0,0044;-0,0034;-5,95;2,97;1,63
34,880780,0305;-0,0044;-0,0034;-5,95;2,97;1,63
34,895520,0266;-0,0015;-0,0085;-5,94;3,08;1,82
34,909060,0261;-0,0005;-0,0093;-6,12;2,8;1,64
34,92260,0261;-0,0005;-0,0093;-6,12;2,8;1,64
34,936590,0325;0,0012;-0,0056;-6,15;2,82;1,46
34,952080,0244;-0,0027;-0,0054;-6,08;2,79;1,53
34,968330,0254;0,002;-0,0059;-6,21;2,79;1,5
34,985130,0276;-0,0007;-0,0071;-6,18;2,89;1,5
35,001940,0276;-0,0007;-0,0071;-6,18;2,89;1,5
35,020110,0344;0,0042;-0,0037;-6,05;2,77;1,56
35,036930,0264;0;0,001;-6,05;2,81;1,58
35,053210,0264;0;0,001;-6,05;2,81;1,58
35,068040,0352;-0,001;-0,0042;-5,98;2,92;1,63
35,083030,0352;-0,001;-0,0042;-5,98;2,92;1,63
35,098340,0315;-0,0002;-0,0054;-6,06;2,99;1,63
35,113430,0254;0,0007;0,001;-5,98;2,95;1,71
35,127080,0295;-0,0015;0,001;-5,92;2,88;1,51
35,140410,0295;-0,0015;0,001;-5,92;2,88;1,51
35,149290,0244;-0,0002;-0,0051;-6,26;2,95;1,62
35,158290,0244;-0,0002;-0,0051;-6,26;2,95;1,62
35,167820,0278;-0,0015;0,0029;-6,05;2,98;1,56
35,177490,0278;-0,0015;0,0029;-6,05;2,98;1,56
35,187070,0269;-0,0027;-0,0022;-6,18;2,83;1,68
35,196290,0269;-0,0027;-0,0022;-6,18;2,83;1,68
35,205190,0269;-0,0027;-0,0022;-6,18;2,83;1,68
35,216030,0312;0,0046;-0,0081;-5,98;2,76;1,67
35,232680,0266;0,0017;-0,0127;-6,08;2,8;1,65
35,241660,0266;0,0017;-0,0127;-6,08;2,8;1,65
35,250820,0251;0,0081;-0,0012;-6,13;3,01;1,62
35,259980,0251;0,0081;-0,0012;-6,13;3,01;1,62
35,268660,0251;0,0081;-0,0012;-6,13;3,01;1,62
35,277690,0276;0,0088;0,0044;-6,09;3,15;1,63
35,290620,0264;-0,0007;0,0032;-6,01;2,89;1,48
35,29930,0264;-0,0007;0,0032;-6,01;2,89;1,48
35,307680,0264;-0,0007;0,0032;-6,01;2,89;1,48
35,316170,0339;-0,0027;-0,0046;-6,08;2,86;1,5
35,325070,0339;-0,0027;-0,0046;-6,08;2,86;1,5
35,339720,0261;-0,0015;0,0027;-6,02;2,85;1,79
35,349380,0273;-0,0015;-0,0046;-6,11;2,92;1,59
35,360,0273;-0,0015;-0,0046;-6,11;2,92;1,59
35,370960,0269;-0,0042;-0,0032;-6,02;2,95;1,6
35,379490,0269;-0,0042;-0,0032;-6,02;2,95;1,6
35,389560,0283;0,0042;-0,0098;-6,03;2,76;1,63
35,400090,0283;0,0042;-0,0098;-6,03;2,76;1,63
35,410010,0298;0,0044;-0,0054;-6,08;2,95;1,72
35,422130,0298;0,0044;-0,0054;-6,08;2,95;1,72
35,43370,0254;0,0024;-0,0049;-5,95;2,95;1,56
35,452690,0308;0,0044;-0,0032;-6,12;2,71;1,65
35,46740,0237;-0,0002;0,0012;-6,1;2,79;1,76
35,486790,0266;0,0039;-0,0093;-6,06;3,02;1,68
35,498370,0266;0,0039;-0,0093;-6,06;3,02;1,68
35,508420,0266;0,0039;-0,0093;-6,06;3,02;1,68
35,517940,0315;0,0088;-0,0105;-6,1;2,85;1,47
35,527740,0271;0,0029;-0,0046;-6,04;2,88;1,63
35,538680,0271;0,0029;-0,0046;-6,04;2,88;1,63
35,554640,0291;-0,0017;-0,0022;-6,06;2,92;1,74
35,565490,0291;-0,0017;-0,0022;-6,06;2,92;1,74
35,574540,0295;-0,0039;-0,0112;-5,87;2,91;1,73
35,584780,0295;-0,0039;-0,0112;-5,87;2,91;1,73
35,599610,0325;0,0002;-0,0081;-6,05;2,77;1,49
35,608790,03;0,0005;-0,0039;-6,19;2,89;1,6
35,618550,03;0,0005;-0,0039;-6,19;2,89;1,6
35,629960,0305;-0,0042;-0,0142;-6,23;2,73;1,65
35,639510,0305;-0,0042;-0,0142;-6,23;2,73;1,65
35,649830,0278;-0,0039;-0,0103;-6,17;3,03;1,7
35,664740,0278;-0,0039;-0,0103;-6,17;3,03;1,7
35,674370,0225;-0,0049;-0,0056;-5,84;2,91;1,49
35,684580,0254;0;-0,0115;-6,05;2,96;1,6
35,694230,0254;0;-0,0115;-6,05;2,96;1,6
35,70410,0254;0;-0,0115;-6,05;2,96;1,6
35,714020,0298;0,0002;-0,0093;-6,02;2,92;1,67
35,724150,0298;0,0002;-0,0093;-6,02;2,92;1,67
35,735540,0303;0,0063;-0,0066;-5,97;2,8;1,68
35,752130,0303;0,0063;-0,0066;-5,97;2,8;1,68
35,770130,0239;0,0017;0,002;-6,11;2,93;1,65
35,781170,0295;0,0063;-0,0093;-6,11;2,79;1,46
35,792330,0298;0,0059;-0,0049;-5,88;2,89;1,66
35,803160,0298;0,0059;-0,0049;-5,88;2,89;1,66
35,813580,0251;0,0029;-0,0034;-6,04;2,92;1,6
35,824380,0249;0,0032;0,0054;-6,2;3,07;1,54
35,835910,0249;0,0032;0,0054;-6,2;3,07;1,54
35,845730,0249;0,0032;0,0054;-6,2;3,07;1,54
35,856190,0227;-0,0007;-0,0037;-6,02;3,02;1,66
35,871650,0361;-0,002;0,0037;-6;2,89;1,52
35,882230,0361;-0,002;0,0037;-6;2,89;1,52
35,892060,0361;-0,002;0,0037;-6;2,89;1,52
35,907940,0225;0,0063;-0,0049;-6,1;2,79;1,64
35,91730,0286;0,0012;0,0034;-5,98;2,67;1,62
35,925870,0334;0,0024;-0,0159;-5,95;3,15;1,54
35,934550,0334;0,0024;-0,0159;-5,95;3,15;1,54
35,943910,0334;0,0024;-0,0159;-5,95;3,15;1,54
35,952980,0327;0,0024;-0,0005;-6,02;2,91;1,58
35,962720,0327;0,0024;-0,0005;-6,02;2,91;1,58
35,975170,0273;0,002;-0,0073;-6,14;2,89;1,57
35,984660,0273;0,002;-0,0073;-6,14;2,89;1,57
35,994470,0266;0,0005;-0,0122;-6,05;2,84;1,61
36,003850,0266;0,0005;-0,0122;-6,05;2,84;1,61
36,012720,0315;0,001;-0,0112;-6,15;2,69;1,67
36,022050,0315;0,001;-0,0112;-6,15;2,69;1,67
36,031330,0281;0,0024;-0,0034;-6,05;2,89;1,48
36,042560,0281;0,0024;-0,0034;-6,05;2,89;1,48
36,056090,0281;0,0024;-0,0034;-6,05;2,89;1,48
36,065330,0249;-0,0002;0,0027;-6,04;2,86;1,46
36,075060,0276;0,0034;-0,0144;-6,18;2,84;1,63
36,089680,0286;0,002;-0,002;-5,93;2,76;1,47
36,100140,0286;0,002;-0,002;-5,93;2,76;1,47
36,109710,0305;0;-0,0012;-5,89;2,95;1,53
36,120090,0305;0;-0,0012;-5,89;2,95;1,53
36,130420,031;0,0007;-0,0051;-6,02;2,85;1,6
36,140380,031;0,0007;-0,0051;-6,02;2,85;1,6
36,150770,0269;0;-0,0015;-5,98;2,76;1,59
36,161380,0269;0;-0,0015;-5,98;2,76;1,59
36,171810,0315;0,0049;-0,0049;-6,06;2,93;1,37
36,183430,0315;0,0049;-0,0049;-6,06;2,93;1,37
36,200420,0322;0,0063;-0,0132;-5,98;2,94;1,51
36,216390,0261;0,0039;-0,0044;-6,08;3,05;1,63
36,224910,0276;0,0024;0,0024;-6,07;2,85;1,63
36,234930,0276;0,0024;0,0024;-6,07;2,85;1,63
36,245780,0276;0,0024;0,0024;-6,07;2,85;1,63
36,255570,0251;-0,0022;-0,0237;-6,07;2,85;1,59
36,265350,0251;-0,0022;-0,0237;-6,07;2,85;1,59
36,274760,0215;0,0027;-0,0037;-5,98;2,76;1,62
36,284420,0215;0,0027;-0,0037;-5,98;2,76;1,62
36,298310,0269;-0,0012;0,0017;-5,96;3,08;1,61
36,307370,0269;-0,0012;0,0017;-5,96;3,08;1,61
36,31630,0286;0,001;-0,0107;-6,14;2,92;1,61
36,325470,0217;0,0007;-0,0024;-6,14;2,86;1,56
36,334530,0217;0,0007;-0,0024;-6,14;2,86;1,56
36,343420,0217;0,0007;-0,0024;-6,14;2,86;1,56
36,352340,0186;0,0039;0,002;-6,09;2,87;1,51
36,365470,0186;0,0039;0,002;-6,09;2,87;1,51
36,374440,0339;0,0039;-0,0076;-6,02;2,79;1,58
36,383130,0339;0,0039;-0,0076;-6,02;2,79;1,58
36,392050,0332;-0,001;-0,0063;-6,12;3,21;1,7
36,401480,0332;-0,001;-0,0063;-6,12;3,21;1,7
36,41460,0308;0,0012;0,002;-6,16;2,76;1,5
36,423940,0308;0,0012;0,002;-6,16;2,76;1,5
36,432480,0276;0;0,0007;-6,05;2,95;1,56
36,440550,0276;0;0,0007;-6,05;2,95;1,56
36,450160,0276;0;0,0007;-6,05;2,95;1,56
36,458730,0276;0;0,0007;-6,05;2,95;1,56
36,466960,0276;0;0,0007;-6,05;2,95;1,56
36,475270,0276;0;0,0007;-6,05;2,95;1,56
36,483150,0244;0,0002;0,0046;-6,22;2,86;1,55
36,490580,0247;0,0034;0,0093;-6,01;3;1,71
36,499420,0278;0,0012;-0,0034;-6,09;2,81;1,46
36,509010,0239;-0,0007;-0,0051;-5,97;2,99;1,47
36,523450,0239;-0,0007;-0,0051;-5,97;2,99;1,47
36,53920,022;-0,0054;-0,0083;-6,11;3,08;1,67
36,549880,0281;-0,0037;-0,0112;-6,04;2,86;1,6
36,560350,0281;-0,0037;-0,0112;-6,04;2,86;1,6
36,570540,033;-0,0012;-0,0176;-5,95;2,88;1,69
36,580840,033;-0,0012;-0,0176;-5,95;2,88;1,69
36,591550,0242;-0,002;0,0007;-6,16;2,73;1,66
36,602890,0242;-0,002;0,0007;-6,16;2,73;1,66
36,612980,0242;-0,002;0,0007;-6,16;2,73;1,66
36,622350,0242;-0,002;0,0007;-6,16;2,73;1,66
36,6320,0242;-0,002;0,0007;-6,16;2,73;1,66
36,654820,0295;0,0042;-0,0039;-6,13;2,96;1,67
36,67130,0339;-0,0054;-0,0081;-6,03;2,91;1,67
36,690610,0278;0,0005;-0,0022;-6,01;2,85;1,61
36,704690,0278;0,0005;-0,0022;-6,01;2,85;1,61
36,725990,0242;-0,001;-0,0049;-6,03;3,01;1,79
36,738390,0242;-0,001;-0,0049;-6,03;3,01;1,79
36,753480,0269;-0,0017;-0,0081;-6,1;2,79;1,66
36,764450,0298;0,0012;-0,0039;-5,98;2,85;1,6
36,775070,0298;0,0012;-0,0039;-5,98;2,85;1,6
36,785680,0298;0,0012;-0,0039;-5,98;2,85;1,6
36,795420,0291;0,0044;-0,0007;-5,85;2,98;1,63
36,804730,0291;0,0044;-0,0007;-5,85;2,98;1,63
36,814440,0293;0;-0,0142;-5,98;2,81;1,8
36,824950,0293;0;-0,0142;-5,98;2,81;1,8
36,83880,0364;0,001;-0,0032;-6,27;2,82;1,79
36,848180,0271;-0,0032;0,0017;-6,01;2,71;1,53
36,858240,0271;-0,0032;0,0017;-6,01;2,71;1,53
36,873990,0312;-0,0044;-0,009;-6,16;2,87;1,63
36,884020,0312;-0,0044;-0,009;-6,16;2,87;1,63
36,894760,0247;0,0022;0,0022;-5,99;2,89;1,66
36,905510,0247;0,0022;0,0022;-5,99;2,89;1,66
36,916540,0247;0,0022;0,0022;-5,99;2,89;1,66
36,927930,0247;0,0022;0,0022;-5,99;2,89;1,66
36,937850,0293;-0,001;0,0059;-5,89;2,86;1,63
36,948520,0293;-0,001;0,0059;-5,89;2,86;1,63
36,958310,0293;-0,001;0,0059;-5,89;2,86;1,63
36,968860,0293;-0,001;0,0059;-5,89;2,86;1,63
36,985170,0332;0,002;-0,0039;-6,05;2,92;1,74
36,999950,0291;0,0002;0,0066;-5,95;2,82;1,67
37,009660,0273;-0,0037;-0,0107;-6,02;2,9;1,54
37,01920,0273;-0,0037;-0,0107;-6,02;2,9;1,54
37,02850,0286;0,0017;0,0034;-5,95;2,82;1,52
37,037250,0286;0,0017;0,0034;-5,95;2,82;1,52
37,046510,0286;0,0017;0,0034;-5,95;2,82;1,52
37,055240,0286;0,0017;0,0034;-5,95;2,82;1,52
37,063850,0286;0,0017;0,0034;-5,95;2,82;1,52
37,074620,0303;-0,0005;0,0015;-5,97;2,93;1,61
37,088240,0264;0,0024;-0,0059;-6,04;2,71;1,49
37,097080,0264;0,0024;-0,0059;-6,04;2,71;1,49
37,105590,0337;0,0034;-0,0042;-5,92;2,85;1,5
37,115030,0337;0,0034;-0,0042;-5,92;2,85;1,5
37,123550,0337;0,0034;-0,0042;-5,92;2,85;1,5
37,131720,0295;0,0012;-0,0042;-6,11;2,84;1,51
37,140430,0295;0,0012;-0,0042;-6,11;2,84;1,51
37,152660,0269;0,0085;-0,0059;-6,02;2,92;1,59
37,161190,0269;0,0085;-0,0059;-6,02;2,92;1,59
37,16950,0352;0,0027;-0,0017;-5,92;2,93;1,68
37,177760,0352;0,0027;-0,0017;-5,92;2,93;1,68
37,186570,0266;0,0027;-0,0073;-6,01;2,93;1,64
37,20,0266;0,0027;-0,0073;-6,01;2,93;1,64
37,208890,0264;-0,0017;-0,0027;-6,03;2,96;1,66
37,217560,0264;-0,0017;-0,0027;-6,03;2,96;1,66
37,226550,0264;-0,0017;-0,0027;-6,03;2,96;1,66
37,235270,0264;-0,0017;-0,0027;-6,03;2,96;1,66
37,24360,0264;-0,0017;-0,0027;-6,03;2,96;1,66
37,251720,0295;-0,0061;-0,0039;-6,17;2,95;1,66
37,260370,0352;-0,0002;-0,0078;-6,13;2,88;1,59
37,268870,0352;-0,0002;-0,0078;-6,13;2,88;1,59
37,279130,0312;0,0029;-0,0029;-5,98;2,85;1,66
37,290010,033;0,0039;-0,0049;-6,08;2,85;1,58
37,30540,033;0,0039;-0,0049;-6,08;2,85;1,58
37,31960,0278;0,0049;-0,0044;-5,98;2,86;1,6
37,329360,0278;0,0049;-0,0044;-5,98;2,86;1,6
37,338220,0239;0,0034;-0,0017;-6,02;2,85;1,53
37,347660,0239;0,0034;-0,0017;-6,02;2,85;1,53
37,35730,0239;0,0034;-0,0017;-6,02;2,85;1,53
37,366910,0239;0,0034;-0,0017;-6,02;2,85;1,53
37,376620,0239;0,0034;-0,0017;-6,02;2,85;1,53
37,385980,0239;0,0034;-0,0017;-6,02;2,85;1,53
37,395210,0295;0,0017;0,0073;-5,9;2,95;1,71
37,408920,0298;0,0012;0,002;-5,9;2,76;1,53
37,417650,0276;-0,002;-0,0073;-5,93;2,92;1,6
37,426670,0276;-0,002;-0,0073;-5,93;2,92;1,6
37,435770,0281;-0,0012;-0,002;-6,21;2,82;1,53
37,445070,0281;-0,0012;-0,002;-6,21;2,82;1,53
37,454060,0256;0,001;-0,0056;-6,15;3,02;1,6
37,462960,0256;0,001;-0,0056;-6,15;3,02;1,6
37,475510,0291;0,0051;0,0044;-5,95;3,11;1,59
37,485390,0291;0,0051;0,0044;-5,95;3,11;1,59
37,494620,0291;0,0051;0,0044;-5,95;3,11;1,59
37,503020,0291;0,0051;0,0044;-5,95;3,11;1,59
37,511620,0291;0,0051;0,0044;-5,95;3,11;1,59
37,525270,0229;0,0056;-0,0149;-6,04;2,61;1,63
37,533160,0271;0,0034;0,0029;-5,84;3,12;1,9
37,541560,0288;0,0032;-0,0039;-6,4;2,6;1,48
37,549860,0315;0,0085;-0,0122;-5,89;3,2;1,77
37,558610,0315;0,0085;-0,0122;-5,89;3,2;1,77
37,566880,0315;0,0085;-0,0122;-5,89;3,2;1,77
37,57510,0315;0,0085;-0,0122;-5,89;3,2;1,77
37,583120,0315;0,0085;-0,0122;-5,89;3,2;1,77
37,592010,0315;0,0085;-0,0122;-5,89;3,2;1,77
37,600230,0303;0;-0,0095;-6,18;2,73;1,37
37,608420,0303;0;-0,0095;-6,18;2,73;1,37
37,616930,0269;0,0037;-0,0083;-5,95;2,89;1,66
37,63120,0334;0;0,0071;-6,11;2,98;1,4
37,644620,0334;0;0,0071;-6,11;2,94;1,89
37,661270,0264;0,0071;0,0081;-5,89;2,94;1,89
37,680110,033;-0,0005;-0,0029;-5,85;2,91;1,64
37,692650,0283;-0,0042;-0,0007;-6,05;2,66;1,72
37,702850,0283;-0,0042;-0,0007;-6,05;2,66;1,72
37,713750,0283;-0,0042;-0,0007;-6,05;2,66;1,72
37,724160,0247;0,0083;-0,0127;-5,82;3,22;1,79
37,734770,0312;0,0032;-0,0073;-6,4;2,78;1,47
37,75020,0312;0,0032;-0,0073;-6,4;2,78;1,47
37,760510,0312;0,0032;-0,0073;-6,4;2,78;1,47
37,770740,0312;0,0032;-0,0073;-6,4;2,78;1,47
37,784280,0295;0,0017;-0,0015;-6,14;2,79;1,51
37,792680,0295;0,0017;-0,0015;-6,14;2,79;1,51
37,801740,0339;-0,0042;-0,0034;-5,92;2,85;1,65
37,81120,0259;-0,0005;0,0032;-6,27;2,76;1,56
37,820470,0259;-0,0005;0,0032;-6,27;2,76;1,56
37,829220,02;0,0032;0,0054;-6,04;2,84;1,5
37,83860,02;0,0032;0,0054;-6,04;2,84;1,5
37,853010,02;0,0032;0,0054;-6,04;2,84;1,5
37,861990,02;0,0032;0,0054;-6,04;2,84;1,5
37,870630,0286;-0,0029;-0,0046;-5,8;3,16;1,69
37,878430,0286;-0,0029;-0,0046;-5,8;3,16;1,69
37,886970,0232;-0,0017;-0,0076;-6,12;2,87;1,49
37,896680,0232;-0,0017;-0,0076;-6,12;2,87;1,49
37,905320,0334;0,0081;-0,0049;-6,04;3;1,56
37,914030,0334;0,0081;-0,0049;-6,04;3;1,56
37,922390,0334;0,0081;-0,0049;-6,04;3;1,56
37,935010,0288;-0,0049;-0,0068;-6,22;2,86;1,49
37,943710,0288;-0,0049;-0,0068;-6,22;2,86;1,49
37,952990,0276;-0,0015;-0,0027;-6,16;2,97;1,56
37,967510,0215;0,0068;0,0007;-6,08;3,2;1,69
37,977470,0215;0,0068;0,0007;-6,08;3,2;1,69
37,985690,0215;0,0068;0,0007;-6,08;3,2;1,69
37,994170,0298;0,0042;0,0054;-6,05;3,05;1,59
38,002520,0298;0,0042;0,0054;-6,05;3,05;1,59
38,011590,0315;0,0032;-0,0085;-6;2,99;1,43
38,020140,0315;0,0032;-0,0085;-6;2,99;1,43
38,028270,0342;0,0063;-0,0017;-5,95;3,1;1,5
38,037770,0342;0,0063;-0,0017;-5,95;3,1;1,5
38,047050,0342;0,0063;-0,0017;-5,95;3,1;1,5
38,055760,0256;-0,0032;-0,0061;-5,79;2,76;1,62
38,065380,0256;-0,0032;-0,0061;-5,79;2,76;1,62
38,082250,0237;0,0034;-0,0161;-6,12;2,92;1,63
38,097020,0276;-0,0024;-0,0098;-5,79;2,98;1,66
38,108450,0276;-0,0024;-0,0098;-5,79;2,98;1,66
38,118480,0276;-0,0024;-0,0098;-5,79;2,98;1,66
38,128590,0276;-0,0024;-0,0098;-5,79;2,98;1,66
38,138920,0249;0,0032;-0,0002;-6,03;2,76;1,56
38,149060,0317;-0,0032;-0,0022;-6,21;2,93;1,49
38,15920,0317;-0,0032;-0,0022;-6,21;2,93;1,49
38,16840,0273;0,0044;-0,0088;-6,03;2,82;1,65
38,177810,0273;0,0044;-0,0088;-6,03;2,82;1,65
38,192120,0203;-0,0037;-0,01;-6,15;2,86;1,56
38,201160,0203;-0,0037;-0,01;-6,15;2,86;1,56
38,210130,0312;0,0078;0,0044;-5,93;2,99;1,5
38,219180,0312;0,0078;0,0044;-5,93;2,99;1,5
38,227660,0312;0,0078;0,0044;-5,93;2,99;1,5
38,23650,0327;0,0007;0,0056;-6,03;2,98;1,47
38,249080,0327;0,0007;0,0056;-6,03;2,98;1,47
38,257580,0327;0,0007;0,0056;-6,03;2,98;1,47
38,265690,0327;0,0007;0,0056;-6,03;2,98;1,47
38,27410,0327;0,0007;0,0056;-6,03;2,98;1,47
38,282570,0269;0;-0,0117;-6,11;2,82;1,6
38,295940,0242;0,0051;-0,0007;-6,17;2,87;1,51
38,304430,0242;0,0051;-0,0007;-6,17;2,87;1,51
38,314260,0269;0,0005;-0,0068;-6,12;2,73;1,61
38,325410,0269;0,0005;-0,0068;-6,12;2,73;1,61
38,333810,0256;0,002;-0,0024;-6,05;2,92;1,65
38,342170,0256;0,002;-0,0024;-6,05;2,92;1,65
38,350380,0286;0,0024;-0,001;-5,99;2,88;1,52
38,359830,0286;0,0024;-0,001;-5,99;2,88;1,52
38,370830,0286;-0,0002;-0,0042;-6,15;2,9;1,67
38,380510,0286;-0,0002;-0,0042;-6,15;2,9;1,67
38,391910,03;0,0024;-0,0032;-6,02;3,09;1,53
38,407350,03;0,0024;-0,0032;-6,02;3,09;1,53
38,41580,0305;0,0024;-0,0112;-6,04;2,98;1,56
38,42480,0305;0,0024;-0,0112;-6,04;2,98;1,56
38,43410,0266;0,0037;0,0049;-6;2,89;1,6
38,4440,0266;0,0037;0,0049;-6;2,89;1,6
38,453750,0276;-0,0054;-0,0125;-6,04;2,86;1,53
38,46280,0276;-0,0054;-0,0125;-6,04;2,86;1,53
38,472570,0181;-0,0015;-0,0034;-6,18;2,95;1,59
38,482010,0181;-0,0015;-0,0034;-6,18;2,95;1,59
38,491460,022;0,002;0,002;-6,06;2,92;1,63
38,50190,022;0,002;0,002;-6,06;2,92;1,63
38,517760,0273;-0,0017;0,0056;-6,07;2,76;1,57
38,529090,0295;0,001;0,0063;-6,07;2,71;1,68
38,53910,0295;0,001;0,0063;-6,07;2,71;1,68
38,547850,0295;0,001;0,0063;-6,07;2,71;1,68
38,560620,0295;0,001;0,0063;-6,07;2,71;1,68
38,569190,0295;0,001;0,0063;-6,07;2,71;1,68
38,577870,0295;0,001;0,0063;-6,07;2,71;1,68
38,586950,0256;0,0061;0,0046;-6,02;2,98;1,62
38,595560,0322;0,0029;-0,0022;-6,02;2,72;1,6
38,604440,0327;-0,0061;0,0007;-6,01;2,92;1,63
38,613660,0327;-0,0061;0,0007;-6,01;2,92;1,63
38,633730,0239;0,009;0,0029;-6,24;2,56;1,49
38,651240,0247;-0,0066;-0,0132;-5,78;3,14;1,71
38,660120,0247;-0,0066;-0,0132;-5,78;3,14;1,71
38,669970,0276;-0,0034;-0,0022;-6,13;2,75;1,58
38,679380,0276;-0,0034;-0,0022;-6,13;2,75;1,58
38,688750,0298;0,0032;-0,0151;-6,09;2,95;1,75
38,69810,0298;0,0032;-0,0151;-6,09;2,95;1,75
38,711570,0322;0,0037;-0,0066;-5,88;2,94;1,68
38,721450,0322;0,0037;-0,0066;-5,88;2,94;1,68
38,732250,0273;0,0022;-0,0098;-6,15;2,83;1,6
38,746820,0273;0,0022;-0,0098;-6,15;2,83;1,6
38,756050,0286;-0,0005;-0,0051;-6,07;2,75;1,55
38,765250,03;-0,0046;-0,0042;-6,05;2,85;1,53
38,773740,03;-0,0046;-0,0042;-6,05;2,85;1,53
38,78250,03;-0,0046;-0,0042;-6,05;2,85;1,53
38,79080,0237;0,0068;-0,0146;-6,02;2,64;1,5
38,799720,0237;0,0068;-0,0146;-6,02;2,64;1,5
38,808380,0269;0,0039;-0,0081;-6,14;2,8;1,82
38,817390,0269;0,0039;-0,0081;-6,14;2,8;1,82
38,827430,0269;0,0039;-0,0081;-6,14;2,8;1,82
38,838110,0271;0,0044;0,0007;-5,87;3,05;1,87
38,853530,0295;0,0032;-0,0051;-6,02;3,14;1,91
38,867750,0295;0,0032;-0,0051;-6,02;3,14;1,91
38,877850,03;-0,0073;-0,0042;-5,57;3,11;1,63
38,888210,03;-0,0073;-0,0042;-5,57;3,11;1,63
38,898090,0442;0,0037;-0,012;-6,21;3,13;1,55
38,908170,0442;0,0037;-0,012;-6,21;3,13;1,55
38,918440,019;-0,0049;-0,0068;-6,17;3,05;1,59
38,928080,0371;0,0098;-0,0073;-6,39;2,69;1,41
38,939620,0371;0,0098;-0,0073;-6,39;2,69;1,41
38,953240,031;0,0066;0,0027;-5,8;3,18;1,74
38,961950,031;0,0066;0,0027;-5,8;3,18;1,74
38,970870,0203;0,001;-0,0068;-6,3;2,73;1,54
38,97970,0203;0,001;-0,0068;-6,3;2,73;1,54
38,988220,0203;0,001;-0,0068;-6,3;2,73;1,54
38,997110,021;0,0012;-0,0022;-6,01;2,95;1,7
39,006390,021;0,0012;-0,0022;-6,01;2,95;1,7
39,019220,0281;0,0017;-0,0059;-6,06;2,68;1,36
39,027660,0281;0,0017;-0,0059;-6,06;2,68;1,36
39,036070,033;-0,0007;-0,0017;-5,78;2,77;1,68
39,04430,033;-0,0007;-0,0017;-5,78;2,77;1,68
39,052880,022;0,0015;-0,0017;-6,1;2,73;1,5
39,066540,022;0,0015;-0,0017;-6,1;2,73;1,5
39,075340,0276;0,0076;-0,0046;-6,15;2,95;1,64
39,083820,0276;0,0076;-0,0046;-6,15;2,95;1,64
39,092140,0359;-0,0017;-0,012;-6,14;2,75;1,69
39,100970,0359;-0,0017;-0,012;-6,14;2,75;1,69
39,109420,0264;0,0034;0,0017;-5,92;2,76;1,77
39,117850,0264;0,0034;0,0017;-5,92;2,76;1,77
39,126450,0264;0,0034;0,0017;-5,92;2,76;1,77
39,133970,0264;0,0034;0,0017;-5,92;2,76;1,77
39,143910,0251;-0,0027;-0,0012;-5,95;3;1,69
39,153940,0259;0,0032;-0,0063;-6,02;2,85;1,47
39,168530,0273;0,0039;-0,0007;-6,03;2,98;1,71
39,181270,0273;0,0039;-0,0007;-6,03;2,98;1,71
39,190110,0271;-0,0012;-0,0132;-6,21;2,84;1,48
39,198890,0271;-0,0012;-0,0132;-6,21;2,84;1,48
39,207660,0295;0,0005;0,0085;-6,08;2,6;1,79
39,217020,0295;0,0005;0,0085;-6,08;2,6;1,79
39,228150,0295;0,0005;0,0085;-6,08;2,6;1,79
39,239120,0288;-0,0024;-0,009;-6,2;2,79;1,43
39,249290,0254;0,0005;-0,0044;-6,13;3,02;1,73
39,259080,0254;0,0005;-0,0044;-6,13;3,02;1,73
39,269250,0254;0,0005;-0,0044;-6,13;3,02;1,73
39,28490,0291;-0,002;-0,009;-6,21;2,85;1,73
39,293540,0298;-0,0022;-0,0112;-5,94;2,93;1,57
39,303330,0298;-0,0022;-0,0112;-5,94;2,93;1,57
39,313230,03;0,0037;-0,0107;-6,24;2,79;1,58
39,323190,03;0,0037;-0,0107;-6,24;2,79;1,58
39,335980,0327;0,0039;-0,0051;-5,92;2,97;1,63
39,346290,0327;0,0039;-0,0051;-5,92;2,97;1,63
39,354340,0281;-0,0037;-0,001;-6,08;2,85;1,6
39,363090,0281;-0,0037;-0,001;-6,08;2,85;1,6
39,371680,0205;0,0032;-0,0017;-5,93;3,01;1,56
39,381840,0205;0,0032;-0,0017;-5,93;3,01;1,56
39,395260,0325;0,0005;-0,0076;-6,1;2,82;1,5
39,403820,0325;0,0005;-0,0076;-6,1;2,82;1,5
39,412040,0266;-0,0015;-0,0051;-6,34;2,77;1,58
39,419360,0266;-0,0015;-0,0051;-6,34;2,77;1,58
39,427580,033;-0,0281;-0,0029;-5,69;2;1,75
39,435980,033;-0,0281;-0,0029;-5,69;2;1,75
39,444370,033;-0,0281;-0,0029;-5,69;2;1,75
39,45250,0271;0,0156;-0,0049;-6,5;2,73;1,3
39,460,0271;0,0156;-0,0049;-6,5;2,73;1,3
39,468050,02;0,0083;-0,0007;-5,82;3,01;1,83
39,476410,02;0,0083;-0,0007;-5,82;3,01;1,83
39,48930,0344;-0,0068;-0,0073;-6,17;2,8;1,5
39,502370,0344;-0,0068;-0,0073;-6,17;2,8;1,5
39,510890,0286;0,0029;0,011;-6,05;2,81;1,37
39,520310,0286;0,0029;0,011;-6,05;2,81;1,37
39,528660,0286;0,0029;0,011;-6,05;2,81;1,37
39,536860,0286;0,0029;0,011;-6,05;2,81;1,37
39,546380,0278;-0,0056;-0,0083;-6,04;3,11;1,67
39,554760,0281;0,0007;-0,0034;-6,13;2,85;1,49
39,562730,0281;0,0007;-0,0034;-6,13;2,85;1,49
39,57080,0322;0,0007;-0,0115;-6,08;3,12;1,74
39,579250,0322;0,0007;-0,0115;-6,08;3,12;1,74
39,595180,0286;-0,0029;-0,011;-6,16;3,12;1,55
39,618950,0264;-0,0042;-0,0051;-6,03;2,89;1,63
39,629930,0283;0,0024;-0,0049;-6,23;2,66;1,56
39,645850,0283;0,0024;-0,0049;-6,23;2,66;1,56
39,657230,0308;-0,0071;-0,0095;-5,97;2,82;1,61
39,667720,0308;-0,0071;-0,0095;-5,97;2,82;1,61
39,678130,0359;0,0054;-0,0007;-6,14;2,91;1,84
39,688130,0359;0,0054;-0,0007;-6,14;2,91;1,84
39,699090,0264;0,0049;0,0046;-5,98;2,98;1,71
39,714890,0273;0,0007;-0,0024;-6,05;2,73;1,5
39,724670,0273;0,0007;-0,0024;-6,05;2,73;1,5
39,734040,031;0,0027;0,0015;-6,02;2,84;1,62
39,744160,031;0,0027;0,0015;-6,02;2,84;1,62
39,754980,0193;-0,0034;0,0051;-6,08;3;1,65
39,764130,0193;-0,0034;0,0051;-6,08;3;1,65
39,774410,0286;-0,0005;0,0034;-6,08;2,9;1,66
39,78370,0286;-0,0005;0,0034;-6,08;2,9;1,66
39,796980,0276;0,0049;-0,0078;-5,78;2,96;1,67
39,806420,0283;0,0032;-0,0115;-6,13;3;1,58
39,815380,0283;0,0032;-0,0115;-6,13;3;1,58
39,830620,0261;-0,0029;-0,0059;-6,13;2,72;1,68
39,839480,0261;-0,0029;-0,0059;-6,13;2,72;1,68
39,848790,0261;0,0027;-0,0012;-5,98;2,88;1,54
39,858070,0261;0,0027;-0,0012;-5,98;2,88;1,54
39,867570,0344;0,0039;-0,0073;-6;3,02;1,8
39,876270,0344;0,0039;-0,0073;-6;3,02;1,8
39,884770,0344;0,0039;-0,0073;-6;3,02;1,8
39,893310,0183;-0,0012;-0,0039;-5,96;2,88;1,56
39,902060,0183;-0,0012;-0,0039;-5,96;2,88;1,56
39,910180,0276;-0,0015;0,0034;-6,04;2,79;1,66
39,918950,0276;-0,0015;0,0034;-6,04;2,79;1,66
39,932660,0266;0,0044;-0,0049;-6;2,85;1,69
39,941470,0266;0,0044;-0,0049;-6;2,85;1,69
39,953980,0229;-0,0046;-0,0122;-6,21;2,65;1,54
39,96420,0229;-0,0046;-0,0122;-6,21;2,65;1,54
39,972950,0298;0,0027;-0,0032;-6,05;2,95;1,63
39,981840,0298;0,0027;-0,0032;-6,05;2,95;1,63
39,990060,0286;-0,0029;-0,0032;-5,99;2,97;1,76
39,999590,0286;-0,0029;-0,0032;-5,99;2,97;1,76
40,009450,0378;-0,0005;-0,0083;-6,23;2,85;1,48
40,020050,0378;-0,0005;-0,0083;-6,23;2,85;1,48
40,036420,0273;-0,0007;0,0005;-5,98;2,8;1,61
40,046010,0273;-0,0007;0,0005;-5,98;2,8;1,61
40,0560,0266;-0,0042;-0,0071;-6,15;2,81;1,53
40,065450,0266;-0,0042;-0,0071;-6,15;2,81;1,53
40,075450,0242;0,0027;-0,0049;-6,17;2,87;1,61
40,085750,0225;0,0044;-0,0015;-6,18;2,97;1,57
40,096310,0225;0,0044;-0,0015;-6,18;2,97;1,57
40,1110,021;-0,0005;-0,0051;-6,1;2,91;1,74
40,120470,021;-0,0005;-0,0051;-6,1;2,91;1,74
40,129910,0256;0,0037;0,0051;-6,05;3,02;1,47
40,144640,0256;0,0037;0,0051;-6,05;3,02;1,47
40,157050,0242;0,0002;-0,0085;-5,93;2,93;1,67
40,168250,0242;0,0002;-0,0085;-5,93;2,93;1,67
40,178080,0261;-0,0029;-0,0095;-5,91;2,9;1,66
40,187310,0312;0,0017;-0,0068;-5,9;2,82;1,51
40,196330,0312;0,0017;-0,0068;-5,9;2,82;1,51
40,205440,0312;0,0017;-0,0068;-5,9;2,82;1,51
40,214330,0293;0,0034;-0,0049;-6,11;3,03;1,58
40,223140,0293;0,0034;-0,0049;-6,11;3,03;1,58
40,232170,0293;0,0034;-0,0049;-6,11;3,03;1,58
40,241370,0293;-0,0024;0,0071;-6,02;3,23;1,73
40,255410,0276;0,0012;-0,0044;-6,26;2,86;1,66
40,268520,0276;0,0012;-0,0044;-6,26;2,86;1,66
40,278680,0244;0,0056;-0,0076;-6,03;2,88;1,6
40,287860,0293;-0,0027;-0,0161;-6,08;2,85;1,49
40,297330,0293;-0,0027;-0,0161;-6,08;2,85;1,49
40,306030,0293;-0,0027;-0,0161;-6,08;2,85;1,49
40,315690,0298;0,0054;0,0046;-6,04;2,94;1,6
40,325560,0298;0,0054;0,0046;-6,04;2,94;1,6
40,339910,0249;0,0071;-0,0078;-5,94;2,78;1,75
40,35260,0249;0,0071;-0,0078;-5,94;2,78;1,75
40,367060,0295;-0,0012;-0,0083;-6,29;2,88;1,71
40,377480,0278;0,0012;-0,0068;-6,09;2,9;1,53
40,388160,0291;0,0032;-0,0029;-6,09;2,82;1,56
40,399360,0291;0,0032;-0,0029;-6,09;2,82;1,56
40,410140,0325;0,0007;-0,0078;-6,02;2,92;1,53
40,425790,0325;0,0007;-0,0078;-6,02;2,92;1,53
40,437640,0215;0,0024;-0,0063;-5,97;2,81;1,58
40,448650,0278;0,0022;0,001;-6,01;2,92;1,79
40,460910,0278;0,0022;0,001;-6,01;2,92;1,79
40,477840,0261;0;0,0032;-6,21;2,78;1,57
40,488770,0322;0,0027;-0,0044;-5,8;2,85;1,71
40,496250,0322;0,0027;-0,0044;-5,8;2,85;1,71
40,505160,0322;0,0027;-0,0044;-5,8;2,85;1,71
40,514310,0312;-0,0007;-0,0027;-6,12;2,73;1,67
40,52380,0312;-0,0007;-0,0027;-6,12;2,73;1,67
40,5330,0264;-0,002;-0,0022;-5,99;3,11;1,51
40,542730,0264;-0,002;-0,0022;-5,99;3,11;1,51
40,55170,0264;-0,002;-0,0022;-5,99;3,11;1,51
40,560840,0276;0,002;-0,0061;-5,85;3;1,57
40,574360,0244;-0,0012;-0,0071;-6,16;2,98;1,52
40,589770,0244;-0,0012;-0,0071;-6,16;2,98;1,52
40,601870,03;0,0029;-0,0032;-6,13;2,74;1,72
40,614990,0281;-0,0022;-0,0081;-6,01;2,82;1,71
40,633930,0298;-0,0012;-0,0056;-5,95;2,92;1,56
40,644170,0298;-0,0012;-0,0056;-5,95;2,92;1,56
40,653640,0222;0,0056;-0,0032;-6,31;2,84;1,49
40,663260,0222;0,0056;-0,0032;-6,31;2,84;1,49
40,672890,0242;0,001;-0,0015;-6,08;2,79;1,6
40,683160,0242;0,001;-0,0015;-6,08;2,79;1,6
40,698260,0298;-0,0002;-0,0056;-5,93;2,87;1,61
40,710110,0308;-0,0015;0,0024;-6,04;2,85;1,44
40,719620,0308;-0,0015;0,0024;-6,04;2,85;1,44
40,733160,0256;0,0032;-0,0007;-6,02;2,81;1,72
40,742950,0256;0,0032;-0,0007;-6,02;2,81;1,72
40,752210,0266;0,0017;-0,0012;-5,98;2,93;1,73
40,761830,0266;0,0017;-0,0012;-5,98;2,93;1,73
40,771850,03;-0,0007;-0,0022;-6,03;2,92;1,61
40,782360,03;-0,0007;-0,0022;-6,03;2,92;1,61
40,794520,0198;0,002;-0,0032;-6,11;3,12;1,35
40,810360,0237;-0,002;-0,0081;-6,03;2,82;1,54
40,821340,0237;-0,002;-0,0081;-6,03;2,82;1,54
40,831960,0273;0,0037;-0,0127;-6,1;2,88;1,61
40,843110,0273;0,0037;-0,0127;-6,1;2,88;1,61
40,854020,0293;0,0044;-0,0015;-6,15;2,92;1,79
40,864770,0293;0,0044;-0,0015;-6,15;2,92;1,79
40,876070,0337;0,0056;-0,0044;-6,07;3,04;1,59
40,891490,0337;0,0056;-0,0044;-6,07;3,04;1,59
40,901360,0337;0,0056;-0,0044;-6,07;3,04;1,59
40,911340,0298;-0,0002;-0,0029;-6,02;2,92;1,54
40,926170,0298;-0,0002;-0,0029;-6,02;2,92;1,54
40,938830,0315;0,0022;-0,0103;-6,01;2,79;1,68
40,952610,0264;0,0022;0,0068;-6,1;2,98;1,7
40,962420,0264;0,0022;0,0068;-6,1;2,98;1,7
40,971760,0283;-0,0049;-0,0078;-5,85;2,93;1,56
40,981580,0283;-0,0049;-0,0078;-5,85;2,93;1,56
40,990910,0283;-0,0049;-0,0078;-5,85;2,93;1,56
41,005850,0278;-0,0012;-0,0083;-6,07;2,82;1,56
41,02020,0281;-0,0024;-0,021;-5,99;2,94;1,69
41,036050,0256;-0,0005;0,0039;-6,3;2,89;1,67
41,050940,0264;0,0056;-0,0076;-5,89;2,97;1,52
41,065380,0264;0,0056;-0,0076;-5,89;2,97;1,52
41,079560,0293;0;-0,0078;-6,1;3,02;1,69
41,093250,0264;-0,0027;0,0022;-6,18;2,94;1,57
41,106850,0256;0,0002;-0,0002;-6,2;2,98;1,71
41,120940,0256;0,0002;-0,0002;-6,2;2,98;1,71
41,135430,0293;0,0068;-0,0081;-6,11;2,89;1,63
41,149720,0227;-0,0044;-0,0002;-6,03;2,91;1,53
41,164090,0227;-0,0044;-0,0002;-6,03;2,91;1,53
41,178310,0264;0,0034;0,0049;-5,97;2,78;1,63
41,191580,0264;0,0034;0,0049;-5,97;2,78;1,63
41,2090,0273;0,0034;0,0007;-6,26;3,08;1,43
41,225180,0288;0,0039;-0,0039;-5,95;2,95;1,47
41,241560,0291;-0,001;0,0002;-5,77;2,89;1,49
41,257310,0276;-0,0002;-0,009;-6;2,91;1,74
41,273220,03;0,0012;-0,011;-5,89;2,79;1,63
41,287890,03;0,0012;-0,011;-5,89;2,79;1,63
41,301980,0337;0,0029;-0,0112;-5,92;3,03;1,6
41,315630,0295;-0,0012;0,0015;-6,08;2,87;1,47
41,329770,0266;0,0061;-0,0034;-6,12;2,8;1,6
41,344080,0266;0,0061;-0,0034;-6,12;2,8;1,6
41,357640,0283;0,0007;-0,0007;-6,06;2,85;1,56
41,366570,0283;0,0007;-0,0007;-6,06;2,85;1,56
41,375560,0283;0,0007;-0,0007;-6,06;2,85;1,56
41,385460,0339;-0,0044;-0,0115;-5,96;2,86;1,69
41,399150,0339;-0,0044;-0,0115;-5,96;2,86;1,69
41,414080,0278;0,0037;-0,0059;-5,96;2,77;1,55
41,427680,0259;-0,001;-0,0042;-6,1;2,82;1,87
41,441730,0259;-0,001;-0,0042;-6,1;2,82;1,87
41,456420,0259;0,0002;-0,0066;-5,9;2,85;1,61
41,470460,0278;-0,0005;0,0024;-6,11;3,03;1,65
41,48430,0278;-0,0005;0,0024;-6,11;3,03;1,65
41,497950,0305;-0,0002;-0,012;-6,04;3,05;1,58
41,511430,0254;-0,0024;-0,0037;-6,05;2,88;1,71
41,524880,0254;-0,0024;-0,0037;-6,05;2,88;1,71
41,534260,0237;0,0051;-0,0005;-6,21;3,02;1,73
41,543770,0237;0,0051;-0,0005;-6,21;3,02;1,73
41,558780,0229;0,0007;-0,0039;-6,15;2,76;1,54
41,569440,0303;-0,002;-0,0032;-6,14;2,82;1,63
41,579960,0303;-0,002;-0,0032;-6,14;2,82;1,63
41,590030,0325;-0,0017;-0,0132;-6,15;2,96;1,69
41,600480,0325;-0,0017;-0,0132;-6,15;2,96;1,69
41,612210,0215;0,0029;0,0037;-6;2,79;1,76
41,622240,0215;0,0029;0,0037;-6;2,79;1,76
41,632780,0271;-0,0022;-0,0044;-6,02;2,89;1,7
41,644880,0271;-0,0022;-0,0044;-6,02;2,89;1,7
41,661180,0261;0,0051;0,0002;-6,25;2,8;1,62
41,676230,0283;-0,0017;-0,0024;-6,12;2,79;1,63
41,694050,0251;-0,0005;-0,0076;-6,14;2,98;1,6
41,717230,0212;0,0029;-0,0081;-5,97;2,79;1,85
41,73190,0281;-0,002;-0,0056;-6,21;3,09;1,75
41,740380,0281;-0,002;-0,0056;-6,21;3,09;1,75
41,749810,0293;0,001;-0,0068;-6,21;2,86;1,54
41,763050,0293;0,001;-0,0068;-6,21;2,86;1,54
41,772460,0261;-0,0005;0,0024;-5,85;2,96;1,53
41,780410,0261;-0,0005;0,0024;-5,85;2,96;1,53
41,789760,0261;-0,0005;0,0024;-5,85;2,96;1,53
41,798920,0291;-0,0056;-0,0061;-5,98;2,93;1,6
41,808120,0291;-0,0056;-0,0061;-5,98;2,93;1,6
41,819880,0273;0,0049;-0,0107;-6,11;2,85;1,45
41,833590,0298;-0,0037;0,0027;-6,05;2,83;1,6
41,847290,0315;0,0024;-0,0105;-6,22;3,07;1,6
41,861890,0315;0,0024;-0,0105;-6,22;3,07;1,6
41,877180,0286;0,0007;0,0037;-6,05;2,96;1,48
41,891310,0286;0,0007;0,0037;-6,05;2,96;1,48
41,906040,0295;0,0049;-0,0139;-5,96;2,88;1,47
41,919850,0312;-0,0024;-0,0049;-6,13;2,95;1,6
41,929410,0264;0,0027;-0,0098;-6,28;2,62;1,66
41,939240,0264;0,0027;-0,0098;-6,28;2,62;1,66
41,948730,0264;0,0027;-0,0098;-6,28;2,62;1,66
41,959690,0229;-0,0005;0,0007;-5,97;2,82;1,63
41,971440,0247;0,0027;-0,0085;-5,93;2,66;1,54
41,991980,0256;-0,0024;-0,001;-6,15;2,95;1,69
42,003030,0256;-0,0024;-0,001;-6,15;2,95;1,69
42,013930,0266;-0,0046;-0,0076;-6,19;2,8;1,62
42,026460,0266;-0,0046;-0,0076;-6,19;2,8;1,62
42,037940,0256;-0,0015;-0,0059;-5,92;2,88;1,69
42,049020,0256;-0,0015;-0,0059;-5,92;2,88;1,69
42,059770,0293;0,0012;0,0059;-6,03;2,85;1,68
42,070390,0271;-0,001;0,0044;-6;3,08;1,68
42,080,0271;-0,001;0,0044;-6;3,08;1,68
42,090090,0234;0,0017;-0,0012;-6,02;2,89;1,53
42,104860,0234;0,001;-0,002;-6,15;2,84;1,69
42,115280,0234;0,001;-0,002;-6,15;2,84;1,69
42,125430,0234;0,001;-0,002;-6,15;2,84;1,69
42,139230,0361;0,0017;-0,0027;-6,13;2,7;1,63
42,148650,0361;0,0017;-0,0027;-6,13;2,7;1,63
42,15790,0212;-0,0012;-0,0061;-6,06;2,95;1,68
42,166860,0244;0,001;0,0017;-6,04;2,91;1,76
42,176290,0244;0,001;0,0017;-6,04;2,91;1,76
42,185390,0244;0,001;0,0017;-6,04;2,91;1,76
42,195730,0244;0,001;0,0017;-6,04;2,91;1,76
42,211920,0261;0,0068;-0,0081;-6,07;2,77;1,62
42,221940,0261;0,0068;-0,0081;-6,07;2,77;1,62
42,23290,0249;0,0015;-0,0042;-6,14;2,96;1,6
42,243760,0249;0,0015;-0,0042;-6,14;2,96;1,6
42,253110,0293;0,0049;-0,0095;-6,23;3,03;1,53
42,26290,0293;0,0049;-0,0095;-6,23;3,03;1,53
42,272170,0339;-0,0029;-0,0012;-6,11;2,73;1,85
42,281470,0339;-0,0029;-0,0012;-6,11;2,73;1,85
42,29440,0286;0;-0,0098;-6,22;2,87;1,56
42,302440,0286;0;-0,0098;-6,22;2,87;1,56
42,311990,022;0,0002;-0,0059;-5,85;2,86;1,68
42,325990,0264;-0,002;-0,0071;-6,26;2,92;1,69
42,335580,0264;-0,002;-0,0071;-6,26;2,92;1,69
42,345130,0264;-0,002;-0,0071;-6,26;2,92;1,69
42,355760,0303;-0,0046;-0,0085;-5,94;2,9;1,49
42,366290,0303;-0,0046;-0,0085;-5,94;2,9;1,49
42,377360,0242;0,0027;-0,0022;-6,11;2,83;1,44
42,388240,0242;0,0027;-0,0022;-6,11;2,83;1,44
42,399790,0271;-0,0017;-0,0024;-6,07;2,85;1,63
42,410040,0266;0,0015;0,0039;-5,99;2,96;1,76
42,421240,0266;0,0015;0,0039;-5,99;2,96;1,76
42,437820,0312;0,0037;-0,0081;-6,14;2,9;1,66
42,454440,0273;0,0032;-0,0085;-5,95;2,9;1,74
42,464840,0273;0,0032;-0,0085;-5,95;2,9;1,74
42,474230,0315;0;-0,0027;-5,79;3,01;1,61
42,483380,0315;0;-0,0027;-5,79;3,01;1,61
42,492540,0237;-0,0012;-0,012;-6,01;2,85;1,76
42,501820,0237;-0,0012;-0,012;-6,01;2,85;1,76
42,510850,0278;-0,0015;-0,0093;-6,04;2,73;1,53
42,519940,0278;-0,0015;-0,0093;-6,04;2,73;1,53
42,528960,0278;-0,0015;-0,0093;-6,04;2,73;1,53
42,538450,0291;0,0015;0,0042;-6,02;2,87;1,54
42,552710,03;0,0007;-0,0015;-6,12;2,86;1,58
42,562550,03;0,0007;-0,0015;-6,12;2,86;1,58
42,573290,0308;0;-0,0061;-6,1;2,89;1,62
42,582630,0308;0;-0,0061;-6,1;2,89;1,62
42,591710,0286;0,0037;-0,0024;-6,05;3,09;1,83
42,604950,0286;0,0037;-0,0024;-6,05;3,09;1,83
42,614570,0295;0,0032;-0,0027;-5,9;2,86;1,76
42,623810,0295;0,0032;-0,0027;-5,9;2,86;1,76
42,632850,03;0,0024;-0,0022;-6,02;2,85;1,66
42,642550,03;0,0024;-0,0022;-6,02;2,85;1,66
42,657750,0273;0,0017;-0,0022;-5,85;2,92;1,65
42,667710,0266;-0,001;0,0034;-6,18;2,95;1,65
42,67930,0266;-0,001;0,0034;-6,18;2,95;1,65
42,691440,0266;0,002;0;-6,33;3,07;1,66
42,705090,0266;0,002;0;-6,33;3,07;1,66
42,715730,0286;0,0024;-0,0002;-6,02;2,75;1,77
42,724670,0286;0,0024;-0,0002;-6,02;2,75;1,77
42,738810,033;-0,0012;-0,0007;-5,88;2,97;1,7
42,761120,0334;0,0005;-0,0061;-5,92;2,98;1,53
42,788390,0242;0,0027;0,0017;-5,91;3,11;1,49
42,804880,0242;0,0027;0,0017;-5,91;3,11;1,49
42,821040,0173;-0,0042;-0,0044;-5,99;2,96;1,72
42,837450,0278;0,002;-0,0032;-5,8;2,91;1,79
42,853650,0249;-0,0007;-0,0125;-6,13;2,87;1,57
42,870940,0308;0,0002;-0,0071;-6,05;2,81;1,73
42,886770,0308;0,0002;-0,0071;-6,05;2,81;1,73
42,902230,0278;0,0027;-0,0046;-5,97;2,93;1,64
42,916020,0308;0,0044;-0,02;-6,05;2,88;1,74
42,930150,0308;0,0044;-0,02;-6,05;2,88;1,74
42,938230,0344;-0,0007;-0,0049;-6,07;2,79;1,6
42,947450,0344;-0,0007;-0,0049;-6,07;2,79;1,6
42,955940,0229;-0,0027;-0,0042;-6,21;2,89;1,58
42,96520,0229;-0,0027;-0,0042;-6,21;2,89;1,58
42,973930,0303;-0,0046;-0,0044;-6,06;2,84;1,7
42,984350,0303;-0,0046;-0,0044;-6,06;2,84;1,7
42,998720,0269;-0,0017;-0,0098;-6,15;2,88;1,6
43,012960,0342;0,0007;-0,002;-6,04;2,89;1,77
43,027430,0342;0,0007;-0,002;-6,04;2,89;1,77
43,042590,0298;0,0002;-0,0066;-6,11;2,98;1,7
43,057190,0259;-0,0017;-0,0063;-5,95;2,84;1,71
43,073020,0293;0,0024;-0,0007;-5,96;3,07;1,65
43,087740,0293;0,0024;-0,0007;-5,96;3,07;1,65
43,102430,0222;0,0017;-0,0073;-6;3,15;1,69
43,117490,0291;0,002;-0,0015;-6,21;3,1;1,63
43,133220,0247;-0,0007;-0,0029;-5,95;3,12;1,76
43,149090,0247;-0,0007;-0,0029;-5,95;3,12;1,76
43,164550,0264;0,0017;-0,0115;-6,19;2,76;1,61
43,175730,0283;0,0044;0,0012;-5,99;3,02;1,77
43,185790,0283;0,0044;0,0012;-5,99;3,02;1,77
43,197160,0295;0,0015;-0,0015;-6,1;2,93;1,47
43,213410,0276;0,0005;-0,0078;-6,11;2,94;1,54
43,229160,0195;-0,0056;0,0005;-6,02;2,82;1,61
43,243860,0195;-0,0056;0,0005;-6,02;2,82;1,61
43,25840,0332;-0,0002;-0,0032;-6,1;2,91;1,54
43,274050,0271;-0,0071;-0,0044;-6,05;2,82;1,67
43,288230,0298;-0,0042;-0,001;-5,99;2,86;1,61
43,302930,0298;-0,0042;-0,001;-5,99;2,86;1,61
43,31750,0298;0,0002;-0,0042;-5,98;2,93;1,61
43,331460,0288;0,0005;0,0061;-6,05;2,94;1,56
43,345410,0288;0,0005;0,0061;-6,05;2,94;1,56
43,359540,0237;-0,0007;-0,0042;-6,05;2,98;1,63
43,373410,0261;0,0005;-0,0032;-6,2;2,86;1,63
43,387540,0234;0,0027;-0,0103;-6,04;2,96;1,7
43,401240,0234;0,0027;-0,0103;-6,04;2,96;1,7
43,41070,0291;-0,0049;-0,0022;-6,11;3,03;1,72
43,420910,0291;-0,0049;-0,0022;-6,11;3,03;1,72
43,435810,0271;0,0093;-0,0059;-6,15;2,89;1,66
43,449460,0283;0,0007;0,0054;-6,1;2,95;1,73
43,464340,0283;0,0007;0,0054;-6,1;2,95;1,73
43,480090,0298;0,0039;0;-5,92;2,86;1,53
43,493540,0366;0,0076;-0,0002;-6,01;2,7;1,57
43,503380,0366;0,0076;-0,0002;-6,01;2,7;1,57
43,513210,0264;0,0037;-0,0049;-6;2,93;1,5
43,524070,0264;0,0037;-0,0049;-6;2,93;1,5
43,540440,0266;0,0044;-0,0063;-5,97;2,98;1,66
43,555620,03;-0,0012;-0,009;-5,95;2,79;1,73
43,565910,03;-0,0012;-0,009;-5,95;2,79;1,73
43,581720,03;0,0015;0,0066;-6,24;2,88;1,76
43,597350,0254;-0,0005;0,0024;-6,03;2,98;1,56
43,612820,0308;-0,002;0,0012;-5,9;2,88;1,63
43,627820,0308;-0,002;0,0012;-5,9;2,88;1,63
43,64240,0256;-0,001;-0,0112;-6,12;2,98;1,58
43,65630,0286;-0,002;-0,0022;-6;2,88;1,41
43,670150,0317;0,0037;0,0046;-6,32;2,81;1,47
43,685050,0317;0,0037;0,0046;-6,32;2,81;1,47
43,694390,0283;0,0059;0,0022;-6,22;2,98;1,62
43,707680,0295;-0,0024;-0,002;-6,1;2,76;1,66
43,716440,0295;-0,0024;-0,002;-6,1;2,76;1,66
43,72540,0295;-0,0024;-0,002;-6,1;2,76;1,66
43,738590,0261;0,0022;-0,0024;-6,05;2,78;1,71
43,75260,0261;0,0022;-0,0024;-6,05;2,78;1,71
43,766050,0259;0,0012;-0,0085;-6,04;2,89;1,7
43,779510,031;-0,0005;-0,0093;-5,94;2,85;1,52
43,792650,0269;-0,0002;-0,0112;-6,1;3;1,69
43,805960,0269;-0,0002;-0,0112;-6,1;3;1,69
43,819440,0286;0,0015;-0,0076;-6,23;2,76;1,65
43,833650,0349;0,0049;-0,0024;-6,15;2,79;1,66
43,848140,0349;0,0049;-0,0024;-6,15;2,79;1,66
43,862830,0288;0,0012;0,0032;-6,05;3,05;1,67
43,879450,0261;0,0027;0,0002;-6,05;2,78;1,64
43,900370,0293;0;-0,0024;-6,02;2,96;1,81
43,914280,0276;0,0012;-0,0081;-5,95;2,9;1,52
43,926380,0249;0,0002;0,0007;-6,1;2,9;1,61
43,936820,0249;0,0002;0,0007;-6,1;2,9;1,61
43,947030,0249;0,0002;0,0007;-6,1;2,9;1,61
43,958490,0305;0,0017;-0,0017;-6,07;2,86;1,48
43,975410,0229;-0,002;0,0007;-5,96;2,9;1,54
43,986320,0229;-0,002;0,0007;-5,96;2,9;1,54
43,997360,0256;-0,0027;-0,009;-6,08;2,85;1,63
44,008650,0283;-0,002;-0,0066;-6,1;2,92;1,52
44,02320,0283;-0,002;-0,0066;-6,1;2,92;1,52
44,037230,0312;-0,0002;-0,0081;-6,11;2,78;1,53
44,053070,0337;0;0;-6,08;2,76;1,63
44,069020,0293;0,0032;-0,0027;-5,99;2,66;1,57
44,084950,0293;0,0032;-0,0027;-5,99;2,66;1,57
44,100880,0286;0,002;0,0007;-6,05;3,04;1,53
44,114750,0271;0,0049;-0,0061;-5,99;2,74;1,85
44,124430,0271;0,0049;-0,0061;-5,99;2,74;1,85
44,132850,0312;0,0032;-0,0022;-6,08;3;1,54
44,141760,0312;0,0032;-0,0022;-6,08;3;1,54
44,150180,0259;-0,0005;-0,0083;-6,21;2,92;1,63
44,159010,0259;-0,0005;-0,0083;-6,21;2,92;1,63
44,172050,0266;-0,0005;-0,0066;-5,98;3,03;1,73
44,186070,0266;-0,0005;-0,0066;-5,98;3,03;1,73
44,195920,03;-0,0049;0;-6,24;3,02;1,56
44,205150,03;-0,0049;0;-6,24;3,02;1,56
44,214530,0293;-0,002;-0,0034;-6,08;3;1,56
44,22770,0293;-0,002;-0,0034;-6,08;3;1,56
44,242470,0293;0,0032;-0,0022;-5,99;2,87;1,63
44,255780,0271;-0,0002;-0,0017;-5,94;2,78;1,66
44,265380,0271;-0,0002;-0,0017;-5,94;2,78;1,66
44,27930,0342;0,0027;-0,0112;-5,99;2,8;1,59
44,294650,0256;0,0098;0,0044;-5,99;2,99;1,73
44,312480,0247;0,0088;0,0022;-5,87;2,87;1,55
44,328250,0247;0,0088;0,0022;-5,87;2,87;1,55
44,344180,0291;0,0012;-0,0056;-6,02;2,79;1,6
44,359220,033;-0,001;-0,0002;-5,99;2,92;1,5
44,369920,033;-0,001;-0,0002;-5,99;2,92;1,5
44,386890,0271;0,0063;-0,0059;-6,18;2,76;1,59
44,403990,0254;0,0044;-0,0024;-6,03;2,89;1,69
44,418110,0276;-0,0034;0,0034;-6,29;2,94;1,54
44,427920,0295;0,0007;0,001;-6,15;2,82;1,58
44,437520,0295;0,0007;0,001;-6,15;2,82;1,58
44,446880,0295;0,0007;0,001;-6,15;2,82;1,58
44,45650,0266;0;-0,0027;-6,08;2,84;1,5
44,470590,0266;0;-0,0027;-6,08;2,84;1,5
44,484730,0391;-0,0071;-0,0073;-6,01;2,92;1,65
44,498080,0288;0,0017;0,0007;-6,11;2,73;1,57
44,513110,0278;-0,0066;0,0022;-6,06;3;1,63
44,522240,0278;-0,0066;0,0022;-6,06;3;1,63
44,530810,0291;-0,001;-0,0032;-6,08;2,95;1,4
44,539240,0291;-0,001;-0,0032;-6,08;2,95;1,4
44,547770,0291;-0,001;-0,0032;-6,08;2,95;1,4
44,556510,0259;0,0002;0,0005;-5,92;2,68;1,56
44,565060,0259;0,0002;0,0005;-5,92;2,68;1,56
44,573370,0259;0,0002;0,0005;-5,92;2,68;1,56
44,58180,0273;0;-0,0125;-6,17;2,86;1,66
44,590230,0286;-0,0032;-0,0012;-5,92;3,18;1,56
44,599160,0286;-0,0032;-0,0012;-5,92;3,18;1,56
44,612950,0261;0,0039;-0,0076;-5,9;2,82;1,82
44,622230,0261;0,0039;-0,0076;-5,9;2,82;1,82
44,634770,0276;0,0054;-0,0061;-5,98;2,89;1,6
44,64350,0276;0,0054;-0,0061;-5,98;2,89;1,6
44,651990,0276;0,0054;-0,0061;-5,98;2,89;1,6
44,661080,0198;-0,0002;-0,0027;-6,05;2,87;1,69
44,669850,0229;-0,0029;-0,0005;-6,21;2,92;1,41
44,67870,0229;-0,0029;-0,0005;-6,21;2,92;1,41
44,687920,0229;-0,0029;-0,0005;-6,21;2,92;1,41
44,697780,0281;0,0034;-0,0088;-5,82;3,02;1,75
44,708590,0256;-0,0046;-0,002;-6,25;2,83;1,66
44,726050,0256;-0,0046;-0,002;-6,25;2,83;1,66
44,736150,0283;-0,0012;-0,0024;-6,08;2,98;1,55
44,747540,0286;0,0071;-0,0059;-6,11;3,02;1,75
44,75780,0286;0,0071;-0,0059;-6,11;3,02;1,75
44,767120,0286;0,0071;-0,0059;-6,11;3,02;1,75
44,778770,0286;0,0051;-0,0093;-6,17;3,08;1,5
44,794150,031;0;-0,0107;-5,82;2,8;1,7
44,810,03;-0,0061;-0,0098;-6,04;3,05;1,53
44,827610,03;-0,0061;-0,0098;-6,04;3,05;1,53
44,842660,0251;0,0042;-0,0051;-6,04;2,97;1,5
44,856630,0269;0,0017;0,002;-6,05;2,8;1,69
44,870410,0283;-0,0046;-0,0081;-6,11;2,79;1,72
44,884210,0283;-0,0046;-0,0081;-6,11;2,79;1,72
44,898030,0278;0,0049;0,0032;-6,15;2,95;1,53
44,911870,0312;0,0005;-0,012;-6,15;3,05;1,54
44,92790,0312;0,0005;-0,012;-6,15;3,05;1,54
44,941620,0247;0,0032;0,0037;-6,04;2,8;1,73
44,954680,0264;-0,0032;0,0051;-6,06;3,03;1,55
44,971640,0291;-0,0029;-0,0132;-6,08;3,12;1,59
44,991740,0291;-0,0029;-0,0132;-6,08;3,12;1,59
45,00380,0251;-0,0005;0,0027;-6,08;2,89;1,58
45,013630,0334;0,0002;0,0029;-6,02;2,95;1,47
45,024060,0334;0,0002;0,0029;-6,02;2,95;1,47
45,039050,0281;0,0007;-0,0027;-5,91;2,82;1,6
45,052450,0281;0,0007;-0,0027;-5,91;2,82;1,6
45,064720,0259;0,0017;-0,0115;-6,21;2,86;1,63
45,07460,0264;-0,0007;-0,0186;-6,05;2,88;1,63
45,084990,0264;-0,0007;-0,0186;-6,05;2,88;1,63
45,095790,0271;0,0054;-0,0117;-6,04;2,85;1,79
45,111830,0271;0,0054;-0,0117;-6,04;2,85;1,79
45,120670,0232;0,0005;-0,0024;-6,15;2,86;1,74
45,133050,0317;0,0024;-0,0107;-6,16;2,88;1,53
45,147970,0317;0,0024;-0,0107;-6,16;2,88;1,53
45,158790,0288;0,0027;-0,0076;-5,98;2,94;1,5
45,169280,0288;0,0027;-0,0076;-5,98;2,94;1,5
45,179670,0298;0,0002;0,0005;-5,92;2,82;1,57
45,190090,0298;0,0002;0,0005;-5,92;2,82;1,57
45,199510,0249;0,0044;-0,0081;-6,01;2,75;1,61
45,208560,0249;0,0044;-0,0081;-6,01;2,75;1,61
45,217670,032;0,0029;0,0017;-6,13;2,95;1,66
45,226250,032;0,0029;0,0017;-6,13;2,95;1,66
45,236080,0305;0,0032;-0,01;-6,12;2,97;1,59
45,249230,0227;-0,0066;0,0002;-6,15;2,66;1,57
45,265530,0227;-0,0066;0,0002;-6,15;2,66;1,57
45,275770,0339;0,0017;-0,0066;-6,01;2,9;1,37
45,284450,0339;0,0017;-0,0066;-6,01;2,9;1,37
45,293930,0271;0,0027;-0,0042;-6,3;2,87;1,7
45,303110,0271;0,0027;-0,0042;-6,3;2,87;1,7
45,312170,0303;-0,0005;-0,0046;-5,96;2,98;1,71
45,320870,0303;-0,0005;-0,0046;-5,96;2,98;1,71
45,331340,0205;0,0029;0;-6,01;3,07;1,58
45,340720,0205;0,0029;0;-6,01;3,07;1,58
45,352630,0205;0,0029;0;-6,01;3,07;1,58
45,370,031;-0,0017;-0,0027;-6,05;2,96;1,68
45,379740,0256;-0,0017;-0,0002;-5,99;2,98;1,56
45,389420,0256;-0,0017;-0,0002;-5,99;2,98;1,56
45,39930,0247;0,0012;-0,0017;-5,87;3,1;1,79
45,412330,0271;0,0012;-0,0063;-6,05;2,9;1,73
45,421380,0271;0,0012;-0,0063;-6,05;2,9;1,73
45,430180,0271;0,0012;-0,0063;-6,05;2,9;1,73
45,43880,032;-0,0056;-0,002;-6,05;3;1,6
45,447220,032;-0,0056;-0,002;-6,05;3;1,6
45,45550,0259;-0,0051;-0,0044;-6,16;2,99;1,46
45,464310,0259;-0,0051;-0,0044;-6,16;2,99;1,46
45,479110,0322;-0,0034;-0,0073;-6,13;2,98;1,56
45,489170,0322;-0,0034;-0,0073;-6,13;2,98;1,56
45,499290,0322;-0,0034;-0,0073;-6,13;2,98;1,56
45,508060,0288;-0,0022;-0,0061;-6,21;2,85;1,81
45,518560,0291;0,0007;-0,0005;-6,12;2,96;1,8
45,528960,0308;-0,0012;-0,0054;-5,89;2,78;1,72
45,541330,0308;-0,0012;-0,0054;-5,89;2,78;1,72
45,552360,0308;-0,0012;-0,0054;-5,89;2,78;1,72
45,567890,0266;0,0007;-0,0029;-5,92;2,79;1,53
45,584130,0281;0,002;-0,009;-6,12;3,01;1,6
45,59390,0244;0,0054;-0,0142;-5,93;2,78;1,57
45,60320,0244;0,0054;-0,0142;-5,93;2,78;1,57
45,61250,0242;0,002;-0,0059;-5,9;2,96;1,53
45,622290,0242;0,002;-0,0059;-5,9;2,96;1,53
45,631360,0242;0,002;-0,0059;-5,9;2,96;1,53
45,640130,033;-0,0046;-0,0127;-6,24;2,97;1,69
45,649620,0217;0,0022;-0,0066;-6,15;2,85;1,64
45,658930,0217;0,0022;-0,0066;-6,15;2,85;1,64
45,668030,0312;0,0002;-0,0142;-6,02;2,87;1,75
45,677560,0312;0,0002;-0,0142;-6,02;2,87;1,75
45,691720,0234;0,0029;-0,0024;-6,03;2,73;1,66
45,701120,0234;0,0029;-0,0024;-6,03;2,73;1,66
45,710060,0234;0,0029;-0,0024;-6,03;2,73;1,66
45,723450,03;-0,0051;-0,0054;-6,02;3,02;1,69
45,732320,0298;0,0007;-0,0044;-5,95;2,95;1,59
45,742310,0298;0,0007;-0,0044;-5,95;2,95;1,59
45,751450,0286;0,0007;-0,009;-6,07;2,88;1,59
45,760890,0286;0,0007;-0,009;-6,07;2,88;1,59
45,770160,0276;-0,0063;-0,0051;-6,11;2,76;1,56
45,77990,0276;-0,0063;-0,0051;-6,11;2,76;1,56
45,793920,0247;0,0037;-0,0042;-6,03;3,08;1,56
45,80320,0247;0,0037;-0,0042;-6,03;3,08;1,56
45,811590,0234;0,0046;-0,0046;-6,09;2,62;1,52
45,820560,0234;0,0046;-0,0046;-6,09;2,62;1,52
45,828790,0234;0,0046;-0,0046;-6,09;2,62;1,52
45,838210,0337;-0,001;0,0046;-5,87;2,89;1,77
45,847090,0337;-0,001;0,0046;-5,87;2,89;1,77
45,8560,0322;0,0017;-0,0071;-6,04;2,77;1,59
45,865810,0322;0,0017;-0,0071;-6,04;2,77;1,59
45,881180,0247;-0,0012;-0,0083;-6,06;2,81;1,59
45,897360,0295;0,0056;-0,0017;-6,08;2,74;1,51
45,908040,0295;0,0056;-0,0017;-6,08;2,74;1,51
45,917740,0261;-0,0017;-0,001;-6,03;2,84;1,71
45,928050,0261;-0,0017;-0,001;-6,03;2,84;1,71
45,938720,0283;0,0039;-0,0042;-6,1;2,8;1,66
45,950080,0259;0,0068;-0,0076;-5,98;2,88;1,6
45,959820,0259;0,0068;-0,0076;-5,98;2,88;1,6
45,969940,0259;0,0068;-0,0076;-5,98;2,88;1,6
45,979420,0298;-0,0005;-0,0051;-6;2,94;1,56
45,988640,0298;-0,0005;-0,0051;-6;2,94;1,56
46,003320,0339;0,0073;-0,0095;-6,1;2,8;1,73
46,012310,032;0,0002;-0,0032;-6,13;2,96;1,5
46,021240,032;0,0002;-0,0032;-6,13;2,96;1,5
46,033820,0249;0,0015;0,001;-6,05;2,54;1,63
46,042690,0249;0,0015;0,001;-6,05;2,54;1,63
46,050930,0249;0,0015;0,001;-6,05;2,54;1,63
46,059680,0283;0,0034;-0,0061;-5,98;3,07;1,55
46,067560,0283;0,0034;-0,0061;-5,98;3,07;1,55
46,083740,0283;-0,0027;0;-6,26;2,69;1,53
46,101860,0283;0,0061;-0,0081;-6,06;2,76;1,7
46,115280,0283;0,0061;-0,0081;-6,06;2,76;1,7
46,12370,0327;-0,0024;-0,0115;-5,96;2,79;1,6
46,133040,0173;0,0051;-0,0015;-6,12;2,9;1,7
46,141390,0173;0,0051;-0,0015;-6,12;2,9;1,7
46,151730,0315;-0,0027;0,0059;-6,05;2,87;1,6
46,160040,0315;-0,0027;0,0059;-6,05;2,87;1,6
46,168930,0232;0,0037;-0,0032;-5,98;2,99;1,53
46,177810,0232;0,0037;-0,0032;-5,98;2,99;1,53
46,190880,0232;0,0037;-0,0032;-5,98;2,99;1,53
46,20,0273;0,0024;-0,0088;-6,15;2,93;1,47
46,209720,0273;0,0024;-0,0088;-6,15;2,93;1,47
46,223560,0327;-0,0054;-0,0134;-6,18;2,92;1,59
46,232250,0237;0,0027;-0,0015;-6,05;2,84;1,6
46,240980,0237;0,0027;-0,0015;-6,05;2,84;1,6
46,251120,0237;0,0027;-0,0015;-6,05;2,84;1,6
46,261170,0278;-0,0005;-0,0071;-5,95;2,88;1,59
46,272230,0261;0,0037;-0,0022;-6,19;2,94;1,52
46,282360,0261;0,0037;-0,0022;-6,19;2,94;1,52
46,292190,0261;0,0037;-0,0022;-6,19;2,94;1,52
46,302380,0293;0,0027;-0,0103;-6,07;2,84;1,61
46,312220,0293;0,0027;-0,0103;-6,07;2,84;1,61
46,32330,0332;0,0037;-0,0051;-6,15;2,91;1,51
46,339710,0278;-0,0032;0,0022;-6,21;2,86;1,78
46,3540,0232;-0,001;0,0017;-5,98;2,85;1,7
46,365020,0232;-0,001;0,0017;-5,98;2,85;1,7
46,374230,0249;0;-0,0093;-5,86;2,89;1,57
46,383430,0249;0;-0,0093;-5,86;2,89;1,57
46,392720,0249;0;-0,0093;-5,86;2,89;1,57
46,401870,0264;0,0024;0;-6,11;2,97;1,7
46,411150,0215;0,0027;-0,0061;-5,99;2,88;1,56
46,420750,0215;0,0027;-0,0061;-5,99;2,88;1,56
46,430040,0222;0,0027;-0,01;-5,95;3,11;1,54
46,439420,0222;0,0027;-0,01;-5,95;3,11;1,54
46,45330,0334;-0,001;-0,0039;-5,97;3,08;1,69
46,463450,0334;-0,001;-0,0039;-5,97;3,08;1,69
46,47260,0293;0,001;-0,0085;-6,05;2,93;1,66
46,48170,0293;0,001;-0,0085;-6,05;2,93;1,66
46,490810,0293;0,001;-0,0085;-6,05;2,93;1,66
46,503170,0315;0,0034;-0,0022;-6,2;2,98;1,67
46,511920,0256;0,0044;-0,0029;-6,18;2,82;1,55
46,520710,0256;0,0044;-0,0029;-6,18;2,82;1,55
46,529460,0256;0,0044;-0,0029;-6,18;2,82;1,55
46,538280,0271;0,0049;-0,0103;-6,27;2,79;1,52
46,547120,0271;0,0049;-0,0103;-6,27;2,79;1,52
46,55650,0293;0;-0,0049;-6,08;3,01;1,59
46,572650,0334;-0,0017;-0,0154;-6,24;2,81;1,44
46,582270,0334;-0,0017;-0,0154;-6,24;2,81;1,44
46,592080,0291;0,0012;0,0049;-5,96;2,99;1,54
46,601460,0291;0,0012;0,0049;-5,96;2,99;1,54
46,610580,0332;0,0017;-0,0081;-6,08;2,97;1,66
46,619370,0332;0,0017;-0,0081;-6,08;2,97;1,66
46,628470,0332;0,0017;-0,0081;-6,08;2,97;1,66
46,637560,0315;0,0017;0,0024;-6,03;2,77;1,54
46,648490,032;-0,0029;-0,0061;-6,14;2,98;1,49
46,664620,032;-0,0029;-0,0061;-6,14;2,98;1,49
46,680660,0244;-0,0029;-0,0002;-6,05;2,85;1,66
46,690990,0247;0,0039;-0,0015;-6,18;2,95;1,71
46,701760,0247;0,0039;-0,0015;-6,18;2,95;1,71
46,711750,0281;-0,0029;-0,0076;-6,08;2,99;1,66
46,721940,0281;-0,0029;-0,0076;-6,08;2,99;1,66
46,732570,0283;-0,0022;0,0029;-6,09;2,9;1,71
46,742140,0283;-0,0022;0,0029;-6,09;2,9;1,71
46,751720,0298;0,001;-0,0049;-6,11;2,98;1,43
46,760680,0298;0,001;-0,0049;-6,11;2,98;1,43
46,772150,022;0,0024;-0,0049;-5,99;2,97;1,56
46,787510,022;0,0024;-0,0049;-5,99;2,97;1,56
46,796750,0276;0,0046;-0,0034;-6,12;2,85;1,56
46,805910,0276;0,0046;-0,0034;-6,12;2,85;1,56
46,819360,03;-0,0042;-0,0007;-6,01;2,98;1,73
46,828070,03;-0,0042;-0,0007;-6,01;2,98;1,73
46,836820,0286;0,0046;-0,0063;-6,08;2,8;1,56
46,845790,0286;0,0046;-0,0063;-6,08;2,8;1,56
46,854690,0222;0,0017;0,0044;-6,01;2,9;1,67
46,863210,0222;0,0017;0,0044;-6,01;2,9;1,67
46,871870,0276;-0,0017;-0,0078;-6,04;2,92;1,72
46,880690,0276;-0,0017;-0,0078;-6,04;2,92;1,72
46,88980,0276;-0,0017;-0,0078;-6,04;2,92;1,72
46,903280,0295;0,0012;0,0024;-6,12;2,79;1,64
46,912090,0288;0,0017;-0,0061;-5,95;3,01;1,7
46,919360,0288;0,0017;-0,0061;-5,95;3,01;1,7
46,927820,0288;0,0017;-0,0061;-5,95;3,01;1,7
46,936550,0256;-0,0005;-0,011;-6,02;2,77;1,66
46,945190,0256;-0,0005;-0,011;-6,02;2,77;1,66
46,953560,0322;0,0046;-0,0046;-5,99;2,98;1,66
46,962370,0322;0,0046;-0,0046;-5,99;2,98;1,66
46,97670,0251;0,0027;-0,009;-6,15;2,85;1,44
46,985820,0251;0,0027;-0,009;-6,15;2,85;1,44
46,995160,0266;-0,001;-0,0095;-6,11;2,9;1,61
47,008830,0266;-0,001;-0,0095;-6,11;2,9;1,61
47,018230,0283;0,0027;-0,0029;-6,12;2,93;1,58
47,028380,0283;0,0027;-0,0029;-6,12;2,93;1,58
47,038720,0283;0,0027;-0,0029;-6,12;2,93;1,58
47,048790,0281;-0,0012;0,001;-5,98;3,21;1,52
47,059210,03;0,0037;-0,0142;-5,89;2,76;1,63
47,069520,03;0,0037;-0,0142;-5,89;2,76;1,63
47,080230,0303;0,0044;-0,0034;-6,09;2,86;1,69
47,090,0266;0,002;-0,0024;-6,07;2,9;1,38
47,100340,0266;0,002;-0,0024;-6,07;2,9;1,38
47,115210,0286;0,0002;0,0029;-6,14;2,92;1,67
47,129110,0286;0,0002;0,0029;-6,14;2,92;1,67
47,13810,0286;-0,0017;0;-6,06;2,85;1,56
47,146560,0286;-0,0017;0;-6,06;2,85;1,56
47,155260,0283;-0,0034;0,0049;-6,12;2,91;1,61
47,163860,0283;-0,0034;0,0049;-6,12;2,91;1,61
47,174080,0278;0,0017;-0,0017;-5,96;2,86;1,71
47,181960,0278;0,0017;-0,0017;-5,96;2,86;1,71
47,191080,0247;-0,0005;-0,0032;-6,07;2,95;1,72
47,199960,0247;-0,0005;-0,0032;-6,07;2,95;1,72
47,216720,0283;0,0049;-0,0017;-5,95;2,91;1,56
47,239890,0295;0,0044;-0,0083;-6,1;2,92;1,61
47,251230,0295;0,0044;-0,0083;-6,1;2,92;1,61
47,260820,0254;-0,0015;0,0044;-6,1;2,92;1,63
47,270150,0254;-0,0015;0,0044;-6,1;2,92;1,63
47,283210,0293;0,0007;-0,0068;-5,98;2,89;1,55
47,292240,03;0,0005;0,0002;-6;2,98;1,8
47,300960,03;0,0005;0,0002;-6;2,98;1,8
47,309890,0298;0,0002;-0,0127;-5,96;2,8;1,5
47,319560,0298;0,0002;-0,0127;-5,96;2,8;1,5
47,333110,0293;0;-0,0037;-6,11;2,85;1,5
47,342130,0293;0;-0,0037;-6,11;2,85;1,5
47,350440,0293;0;-0,0037;-6,11;2,85;1,5
47,359130,0242;0,0024;0,0061;-6,11;2,76;1,68
47,367790,0242;0,0024;0,0061;-6,11;2,76;1,68
47,378020,0254;0,0066;-0,0068;-5,95;2,85;1,57
47,386740,0254;0,0066;-0,0068;-5,95;2,85;1,57
47,395710,0259;0,0024;-0,0005;-6,07;2,9;1,72
47,404090,0259;0,0024;-0,0005;-6,07;2,9;1,72
47,413540,0295;-0,0037;-0,0042;-6,04;3;1,49
47,423550,0295;-0,0037;-0,0042;-6,04;3;1,49
47,438070,031;0,002;0,0022;-6,13;3,03;1,66
47,454070,0276;0;0,0015;-5,98;3,09;1,73
47,463850,0276;0;0,0015;-5,98;3,09;1,73
47,473870,0247;0,0032;-0,0056;-6;2,95;1,55
47,483810,0247;0,0032;-0,0056;-6;2,95;1,55
47,493520,0254;0;-0,0002;-6,11;2,87;1,7
47,503250,0254;0;-0,0002;-6,11;2,87;1,7
47,513120,0342;0,0012;-0,0083;-5,99;3,05;1,37
47,522510,0342;0,0012;-0,0083;-5,99;3,05;1,37
47,531130,0266;-0,0007;-0,0005;-6,08;2,85;1,57
47,539840,0266;-0,0007;-0,0005;-6,08;2,85;1,57
47,548650,0266;-0,0007;-0,0005;-6,08;2,85;1,57
47,562660,0305;0,0029;-0,0042;-6,03;2,77;1,58
47,571760,0334;0;-0,0081;-5,98;2,78;1,56
47,582120,0334;0;-0,0081;-5,98;2,78;1,56
47,59490,0278;0,0051;-0,0024;-5,92;2,87;1,57
47,603690,0278;0,0051;-0,0024;-5,92;2,87;1,57
47,612080,0298;0,0051;-0,0044;-5,9;2,84;1,61
47,620680,0298;0,0051;-0,0044;-5,9;2,84;1,61
47,629430,0298;0,0051;-0,0044;-5,9;2,84;1,61
47,638260,0312;0,0012;-0,0032;-5,96;2,81;1,5
47,646730,0312;0,0012;-0,0032;-5,96;2,81;1,5
47,65560,031;0,0032;-0,0024;-6,11;2,92;1,55
47,66530,031;0,0032;-0,0024;-6,11;2,92;1,55
47,67950,031;0,0049;-0,0032;-6,05;2,68;1,66
47,687940,031;0,0049;-0,0032;-6,05;2,68;1,66
47,696410,0286;-0,0012;-0,0034;-6,14;2,95;1,66
47,704880,0286;-0,0012;-0,0034;-6,14;2,95;1,66
47,713140,0293;-0,0005;-0,0122;-5,89;2,91;1,6
47,721760,0293;-0,0005;-0,0122;-5,89;2,91;1,6
47,730120,0293;-0,0005;-0,0122;-5,89;2,91;1,6
47,73840,0312;0,0039;-0,0068;-6,12;3,02;1,5
47,750530,0312;0,0039;-0,0068;-6,12;3,02;1,5
47,757870,0259;-0,0007;0,0005;-6,08;2,87;1,61
47,766480,0259;-0,0007;0,0005;-6,08;2,87;1,61
47,779860,0295;-0,0044;-0,0017;-5,9;2,94;1,79
47,791020,0278;-0,0049;-0,0032;-6,18;2,85;1,54
47,800980,0278;-0,0049;-0,0032;-6,18;2,85;1,54
47,81050,0278;-0,0049;-0,0032;-6,18;2,85;1,54
47,820460,0281;0,0012;-0,0076;-6,16;2,76;1,55
47,829780,0281;0,0012;-0,0076;-6,16;2,76;1,55
47,839420,0303;-0,0012;-0,0088;-6,11;2,79;1,63
47,848960,0303;-0,0012;-0,0088;-6,11;2,79;1,63
47,859410,0303;0,0007;-0,0022;-5,98;2,72;1,62
47,86990,0303;0,0007;-0,0022;-5,98;2,72;1,62
47,885010,0266;0;0,0015;-6,24;2,99;1,52
47,89330,0305;-0,0012;-0,0015;-5,9;2,73;1,47
47,906360,0305;-0,0012;-0,0015;-5,9;2,73;1,47
47,915060,0242;0,0007;-0,0012;-6,19;2,82;1,67
47,923510,0242;0,0007;-0,0012;-6,19;2,82;1,67
47,932770,0242;0,0007;-0,0012;-6,19;2,82;1,67
47,941390,0276;0,002;-0,0034;-6,05;2,87;1,62
47,949720,0276;0,002;-0,0034;-6,05;2,87;1,62
47,958480,0212;0,0002;0,0071;-5,98;2,82;1,54
47,967290,0212;0,0002;0,0071;-5,98;2,82;1,54
47,976060,0264;-0,0015;0,002;-6,08;2,95;1,64
47,989910,0264;-0,0015;0,002;-6,08;2,95;1,64
48,000980,0342;0,0059;-0,0056;-6,08;2,95;1,7
48,009250,0212;0,002;-0,0054;-6,01;2,86;1,65
48,01750,0212;0,002;-0,0054;-6,01;2,86;1,65
48,025870,0212;0,002;-0,0054;-6,01;2,86;1,65
48,034220,0295;0,0081;-0,0059;-5,98;3,05;1,56
48,042320,0295;0,0081;-0,0059;-5,98;3,05;1,56
48,050460,0295;0,0081;-0,0059;-5,98;3,05;1,56
48,062770,0281;0,0015;-0,0071;-5,92;2,89;1,47
48,07120,0283;-0,0007;-0,0042;-6,24;2,89;1,73
48,079430,0283;-0,0007;-0,0042;-6,24;2,89;1,73
48,091490,0239;0,0015;-0,0044;-6,05;2,99;1,51
48,10010,0239;0,0015;-0,0044;-6,05;2,99;1,51
48,108190,0239;0,0015;-0,0044;-6,05;2,99;1,51
48,116830,0286;0,0024;-0,001;-6,04;2,93;1,5
48,1250,0286;0,0024;-0,001;-6,04;2,93;1,5
48,133740,0261;0,0044;0,0002;-6,04;3,02;1,71
48,141730,0261;0,0044;0,0002;-6,04;3,02;1,71
48,149950,0334;0,002;-0,0007;-6,17;2,98;1,75
48,158170,0334;0,002;-0,0007;-6,17;2,98;1,75
48,166530,0334;0,002;-0,0007;-6,17;2,98;1,75
48,175270,0276;0,0027;0;-5,85;2,85;1,76
48,1850,0276;0,0027;0;-5,85;2,85;1,76
48,195490,0283;0,0027;-0,0073;-6,02;2,89;1,6
48,212510,0276;-0,0015;-0,002;-5,98;2,84;1,7
48,226330,0276;-0,0015;-0,002;-5,98;2,84;1,7
