Time;AccX;AccY;AccZ;GyX;GyY;GyZ

42,683330,0283;0,0049;-0,0068;-6,04;2,71;1,7
42,698420,0273;-0,0037;-0,0037;-6,05;2,79;1,63
42,707410,0273;-0,0037;-0,0037;-6,05;2,79;1,63
42,723240,0271;0,0024;-0,0046;-6,18;3;1,54
42,733020,0256;-0,0034;-0,0056;-6,05;2,95;1,53
42,742530,0256;-0,0034;-0,0056;-6,05;2,95;1,53
42,752220,0317;0,0034;-0,0088;-6,17;2,73;1,56
42,762070,0317;0,0034;-0,0088;-6,17;2,73;1,56
42,772750,0327;0,0049;-0,001;-6,17;2,82;1,65
42,787030,0327;0,0049;-0,001;-6,17;2,82;1,65
42,796550,0266;0,0029;-0,0073;-5,92;3,02;1,56
42,805160,0266;0,0029;-0,0073;-5,92;3,02;1,56
42,815220,0244;0,0002;0,0007;-5,98;2,83;1,66
42,82480,0244;0,0002;0,0007;-5,98;2,83;1,66
42,833330,0251;0,0029;-0,0081;-6,05;3;1,43
42,842190,0251;0,0029;-0,0081;-6,05;3;1,43
42,851210,0251;0,0029;-0,0081;-6,05;3;1,43
42,861570,0325;-0,0005;-0,0073;-6,01;2,9;1,71
42,874470,03;0;0,0051;-6,34;3,03;1,58
42,888140,03;0;0,0051;-6,34;3,03;1,58
42,896770,0312;0,0015;-0,0005;-5,98;2,96;1,53
42,905460,0312;0,0015;-0,0005;-5,98;2,96;1,53
42,914130,0322;0,0007;-0,0034;-5,92;3,11;1,66
42,924820,0322;0,0007;-0,0034;-5,92;3,11;1,66
42,933280,0322;0,0007;-0,0034;-5,92;3,11;1,66
42,941960,0264;0,0027;-0,0012;-6,08;2,76;1,45
42,95150,0264;0,0027;-0,0012;-6,08;2,76;1,45
42,965260,0298;0,0007;-0,0027;-5,89;3,04;1,6
42,979340,0254;0;0,0056;-6,09;2,79;1,56
42,993930,0254;0;0,0056;-6,09;2,79;1,56
43,007820,0356;0,0037;-0,0066;-6,15;3,02;1,63
43,02130,0278;0,0024;-0,001;-5,95;2,93;1,63
43,035150,0278;0,0024;-0,001;-5,95;2,93;1,63
43,046640,0288;-0,0046;-0,0085;-5,97;3,1;1,74
43,056520,0305;-0,0012;-0,0056;-6,06;2,93;1,52
43,066850,0305;-0,0012;-0,0056;-6,06;2,93;1,52
43,076550,0229;0,0034;0,0042;-6,02;2,83;1,54
43,086720,0229;0,0034;0,0042;-6,02;2,83;1,54
43,100940,0286;0;-0,0066;-6,03;3,05;1,5
43,110940,0286;0;-0,0066;-6,03;3,05;1,5
43,121140,0312;0,0007;-0,0085;-6,18;2,91;1,53
43,138150,0271;0,0027;-0,0088;-5,9;2,96;1,73
43,152240,0271;0,0027;-0,0088;-5,9;2,96;1,73
43,166640,022;-0,001;-0,0103;-6,11;2,99;1,73
43,177010,0337;0,0039;-0,0022;-6,26;2,93;1,75
43,190560,0337;0,0039;-0,0022;-6,26;2,93;1,75
43,204810,0325;0,0039;0,0029;-6;2,74;1,56
43,218230,031;0,0066;-0,0051;-5,98;2,85;1,6
43,231560,0286;0,0017;-0,0093;-6,04;3,08;1,49
43,240250,0286;0,0017;-0,0093;-6,04;3,08;1,49
43,249260,0286;0,0017;-0,0093;-6,04;3,08;1,49
43,257880,0283;-0,0024;0,0024;-6,04;2,95;1,53
43,266590,0283;-0,0024;0,0024;-6,04;2,95;1,53
43,275090,0283;-0,0024;0,0024;-6,04;2,95;1,53
43,2840,032;0,0012;-0,001;-6,09;2,8;1,7
43,292340,032;0,0012;-0,001;-6,09;2,8;1,7
43,301270,032;0,0012;-0,001;-6,09;2,8;1,7
43,315150,0337;0,0042;-0,0007;-6,14;3,02;1,64
43,323550,0337;0,0042;-0,0007;-6,14;3,02;1,64
43,333510,0308;-0,0044;-0,0107;-5,92;2,9;1,66
43,346520,0308;-0,0044;-0,0107;-5,92;2,9;1,66
43,355150,0305;0,0056;-0,0037;-6,08;2,98;1,61
43,36410,0305;0,0056;-0,0037;-6,08;2,98;1,61
43,372950,0305;0,0056;-0,0037;-6,08;2,98;1,61
43,381980,03;-0,0007;0,0056;-6,12;2,92;1,72
43,391930,03;-0,0007;0,0056;-6,12;2,92;1,72
43,40280,0286;-0,001;0,0022;-6,18;2,92;1,76
43,418510,031;0,0012;-0,0117;-6,22;3,04;1,64
43,429020,031;0,0012;-0,0117;-6,22;3,04;1,64
43,438970,0254;0,0007;-0,0051;-5,98;2,73;1,49
43,449460,0254;0,0007;-0,0051;-5,98;2,73;1,49
43,45980,0312;-0,0007;-0,0098;-6,27;2,75;1,59
43,470320,0312;-0,0007;-0,0098;-6,27;2,75;1,59
43,480560,0259;-0,0042;-0,0103;-6,11;2,78;1,52
43,490150,0259;-0,0042;-0,0103;-6,11;2,78;1,52
43,50380,0303;-0,001;-0,0051;-6,07;2,83;1,6
43,517920,0239;-0,0002;0,0017;-5,86;3,01;1,47
43,5270,0239;-0,0002;0,0017;-5,86;3,01;1,47
43,53720,0278;0,001;-0,0122;-5,98;2,9;1,73
43,545880,0278;0,001;-0,0122;-5,98;2,9;1,73
43,55470,0278;0,001;-0,0122;-5,98;2,9;1,73
43,563440,0266;-0,0032;-0,0061;-5,9;2,78;1,53
43,571850,0232;-0,0005;0,002;-5,86;2,84;1,68
43,580430,0232;-0,0005;0,002;-5,86;2,84;1,68
43,590070,0232;-0,0005;0,002;-5,86;2,84;1,68
43,599270,0273;-0,0005;-0,009;-5,97;2,89;1,46
43,608840,0273;-0,0005;-0,009;-5,97;2,89;1,46
43,623140,0286;-0,0005;-0,0125;-5,99;2,85;1,64
43,633470,0286;-0,0005;-0,0125;-5,99;2,85;1,64
43,64920,0312;0,0017;-0,0059;-6,03;2,83;1,52
43,673320,0259;-0,0042;-0,0027;-6,01;2,86;1,61
43,685290,033;0,0034;0,0054;-5,95;2,91;1,66
43,695610,0256;0,0002;-0,0098;-6,12;2,91;1,68
43,705750,0256;0,0002;-0,0098;-6,12;2,91;1,68
43,715360,0232;-0,0032;-0,011;-5,98;2,83;1,75
43,726790,0232;-0,0032;-0,011;-5,98;2,83;1,75
43,742330,0247;0,0005;-0,0054;-6,15;2,89;1,56
43,755580,0339;0,0081;0,0054;-6,05;2,89;1,56
43,766320,0339;0,0081;0,0054;-6,05;2,89;1,56
43,777230,0295;0,0061;-0,012;-6,11;2,98;1,79
43,787560,0295;0,0061;-0,012;-6,11;2,98;1,79
43,797960,0271;0,0034;0,0034;-6,18;2,85;1,63
43,812840,0259;-0,0002;0,0015;-5,99;3,03;1,49
43,82330,0259;-0,0002;0,0015;-5,99;3,03;1,49
43,833130,0259;-0,0002;0,0015;-5,99;3,03;1,49
43,844280,0293;-0,0002;-0,0105;-6,02;2,91;1,58
43,859280,03;-0,0046;-0,0078;-6,1;2,9;1,76
43,869530,03;-0,0046;-0,0078;-6,1;2,9;1,76
43,878680,0317;0,0005;-0,0129;-6,37;2,9;1,47
43,888160,0317;0,0005;-0,0129;-6,37;2,9;1,47
43,897160,0361;0,0032;-0,0164;-5,79;2,82;1,61
43,90630,0361;0,0032;-0,0164;-5,79;2,82;1,61
43,916240,0271;-0,0034;0,0066;-5,97;2,82;1,58
43,925750,0271;-0,0034;0,0066;-5,97;2,82;1,58
43,935230,0239;0,0007;-0,0088;-5,84;2,82;1,62
43,945390,0239;0,0007;-0,0088;-5,84;2,82;1,62
43,961690,0283;0,0002;-0,0027;-6,02;2,85;1,7
43,976590,0242;0,002;-0,0024;-5,81;2,93;1,62
43,990970,0242;0,002;-0,0024;-5,81;2,93;1,62
44,001010,0271;0,0029;-0,011;-6,12;2,95;1,58
44,01060,0271;0,0029;-0,011;-6,12;2,95;1,58
44,019710,0271;0,0029;-0,011;-6,12;2,95;1,58
44,029110,0305;0,002;-0,0107;-6,09;3;1,62
44,038540,0305;0,0051;-0,0049;-5,99;2,69;1,61
44,047880,0305;0,0051;-0,0049;-5,99;2,69;1,61
44,057580,0281;0,002;-0,001;-6,18;3,01;1,61
44,072320,0281;0,002;-0,001;-6,18;3,01;1,61
44,081320,0264;-0,0022;-0,0103;-6,02;2,89;1,54
44,090170,0264;-0,0022;-0,0103;-6,02;2,89;1,54
44,100810,0278;0,0022;-0,0037;-6,11;2,92;1,44
44,110840,0278;0,0022;-0,0037;-6,11;2,92;1,44
44,121280,0266;0,0037;-0,0076;-5,86;2,8;1,65
44,135720,0298;0,0027;0,001;-6,11;2,91;1,65
44,146090,0298;0,0027;0,001;-6,11;2,91;1,65
44,157940,0308;0,0024;-0,0007;-6,01;2,84;1,53
44,173370,0308;0,0024;-0,0007;-6,01;2,84;1,53
44,184190,0293;-0,0005;-0,0005;-6,04;3;1,82
44,193830,0293;-0,0005;-0,0005;-6,04;3;1,82
44,203490,0283;-0,0032;-0,011;-6,12;2,92;1,6
44,212660,0283;-0,0032;-0,011;-6,12;2,92;1,6
44,221710,0271;-0,0042;-0,0076;-6,02;2,89;1,69
44,230890,0271;-0,0042;-0,0076;-6,02;2,89;1,69
44,239880,0237;0,0007;-0,0073;-6,06;2,9;1,4
44,249020,0237;0,0007;-0,0073;-6,06;2,9;1,4
44,257870,0295;0,002;-0,0112;-6,09;2,89;1,62
44,266760,0295;0,002;-0,0112;-6,09;2,89;1,62
44,276040,0269;-0,0017;0,001;-6,16;2,86;1,5
44,289840,0269;-0,0017;0,001;-6,16;2,86;1,5
44,298960,0269;-0,0017;0,001;-6,16;2,86;1,5
44,307880,0288;0,0027;-0,0088;-6,16;2,81;1,61
44,316680,0288;0,0027;-0,0088;-6,16;2,81;1,61
44,325680,0298;0,0012;-0,009;-6,07;2,8;1,68
44,334470,0264;0,0007;0,001;-5,95;3,08;1,54
44,343420,0264;0,0007;0,001;-5,95;3,08;1,54
44,352120,0225;0,0063;-0,0049;-5,97;2,97;1,68
44,363150,0225;0,0063;-0,0049;-5,97;2,97;1,68
44,371990,0239;0,0007;-0,0078;-6,03;2,94;1,73
44,381360,0239;0,0007;-0,0078;-6,03;2,94;1,73
44,39590,0251;0,0005;-0,0034;-5,84;2,91;1,49
44,404990,0251;0,0005;-0,0034;-5,84;2,91;1,49
44,41380,0251;0,0005;-0,0034;-5,84;2,91;1,49
44,422730,0308;0,0034;0,0059;-6,1;2,89;1,57
44,43150,0308;0,0034;0,0059;-6,1;2,89;1,57
44,445260,0303;0,0032;-0,0027;-6;3,14;1,6
44,454460,0288;-0,002;-0,0112;-6,01;2,97;1,63
44,464270,0288;-0,002;-0,0112;-6,01;2,97;1,63
44,47420,0288;-0,002;-0,0112;-6,01;2,97;1,63
44,486610,0264;-0,0037;-0,002;-5,94;2,96;1,7
44,50260,0266;-0,0061;-0,0046;-6,21;2,98;1,6
44,512970,0361;-0,0051;0,0007;-6,09;2,88;1,69
44,523280,0361;-0,0051;0,0007;-6,09;2,88;1,69
44,5340,0361;-0,0051;0,0007;-6,09;2,88;1,69
44,544340,0305;0,0046;-0,012;-6,09;2,91;1,68
44,554470,0266;-0,0007;-0,012;-6,02;3,15;1,68
44,56660,0266;-0,0007;-0,012;-6,02;3,15;1,68
44,57680,0298;0,0044;-0,0022;-6,14;2,8;1,7
44,586810,0298;0,0044;-0,0022;-6,14;2,8;1,7
44,600930,0298;0,0044;-0,0022;-6,14;2,8;1,7
44,615120,0312;0,0034;-0,0022;-6,02;2,87;1,63
44,623860,0312;0,0034;-0,0022;-6,02;2,87;1,63
44,632790,0312;0,0034;-0,0022;-6,02;2,87;1,63
44,641640,0293;-0,0068;-0,0024;-6,06;2,85;1,85
44,651580,0293;-0,0068;-0,0024;-6,06;2,85;1,85
44,660260,0264;0,0037;-0,0032;-6,15;3,08;1,46
44,669640,0264;0,0037;-0,0032;-6,15;3,08;1,46
44,678410,0232;0,0005;0;-5,92;2,86;1,66
44,687880,0232;0,0005;0;-5,92;2,86;1,66
44,697960,0232;0,0005;0;-5,92;2,86;1,66
44,707570,0269;0,002;-0,0117;-6,21;2,82;1,5
44,717340,0254;-0,0002;-0,0007;-5,89;2,98;1,64
44,731440,0254;-0,0002;-0,0007;-5,89;2,98;1,64
44,74090,0291;0,0083;-0,001;-6,09;3,04;1,6
44,754150,0283;-0,0039;0,0007;-6,2;2,82;1,53
44,763540,0283;-0,0039;0,0007;-6,2;2,82;1,53
44,774160,0312;0,0002;-0,0044;-6,1;2,87;1,52
44,783780,0312;0,0002;-0,0044;-6,1;2,87;1,52
44,792840,0312;0,0002;-0,0044;-6,1;2,87;1,52
44,801910,0234;0,0027;-0,0012;-6,01;2,97;1,53
44,811710,0234;0,0027;-0,0012;-6,01;2,97;1,53
44,821720,0271;0,0049;-0,0012;-5,97;2,95;1,67
44,833310,0256;0,0056;-0,0063;-6,12;2,92;1,76
44,849490,0256;0,0056;-0,0063;-6,12;2,92;1,76
44,859630,0264;0,0005;0,0017;-5,89;2,99;1,65
44,870,0264;0,0005;0,0017;-5,89;2,99;1,65
44,881960,0264;0,0029;-0,0027;-6,04;2,92;1,68
44,892860,0278;0,0015;-0,0042;-5,8;2,83;1,38
44,9070,0278;0,0015;-0,0042;-5,8;2,83;1,38
44,917530,0308;-0,0005;-0,0027;-6,14;2,94;1,61
44,925660,0308;-0,0005;-0,0027;-6,14;2,94;1,61
44,936240,0332;0,0078;-0,0085;-6,09;2,96;1,5
44,953780,0266;0,0012;-0,0078;-5,85;2,87;1,59
44,965420,0266;0,0012;-0,0078;-5,85;2,87;1,59
44,9850,0251;0,0063;-0,0117;-6,09;2,89;1,63
44,998020,0281;0,0022;0,001;-6,01;2,89;1,57
45,00820,0281;0,0022;0,001;-6,01;2,89;1,57
45,017940,0286;0,0022;-0,0049;-5,99;2,86;1,57
45,029340,0286;0,0022;-0,0049;-5,99;2,86;1,57
45,040160,03;-0,0039;-0,0115;-6,05;3,05;1,73
45,055910,032;-0,0024;0,0027;-5,74;2,98;1,56
45,070910,032;-0,0024;0,0027;-5,74;2,98;1,56
45,081310,0347;0,0007;0,0034;-6,05;2,98;1,73
45,091120,0315;0,0056;-0,0056;-5,87;2,7;1,5
45,10110,0315;0,0056;-0,0056;-5,87;2,7;1,5
45,112560,0315;0,0056;-0,0056;-5,87;2,7;1,5
45,127240,0237;0,0012;-0,0005;-6,02;2,84;1,42
45,142190,0271;0,002;-0,0068;-6,1;2,89;1,53
45,157960,0291;0,0012;-0,0022;-6,15;3,04;1,58
45,167850,0291;0,0012;-0,0022;-6,15;3,04;1,58
45,177320,0283;0,0037;-0,0027;-6,19;2,81;1,76
45,189010,0283;0,0037;-0,0027;-6,19;2,81;1,76
45,199210,0276;0,0032;-0,0056;-5,95;2,98;1,47
45,209610,0276;0,0032;-0,0056;-5,95;2,98;1,47
45,224240,0256;-0,0037;0,0049;-6,17;2,9;1,6
45,234720,0256;-0,0037;0,0049;-6,17;2,9;1,6
45,246080,032;-0,0024;-0,0088;-6,16;2,78;1,72
45,261490,0251;0,0005;0;-5,77;2,81;1,59
45,272290,0293;0,0022;-0,0107;-6,21;2,69;1,54
45,282090,0293;0,0022;-0,0107;-6,21;2,69;1,54
45,291790,0286;0,0066;-0,0154;-6,14;2,8;1,72
45,301160,0286;0,0066;-0,0154;-6,14;2,8;1,72
45,310640,0286;0,0066;-0,0154;-6,14;2,8;1,72
45,320090,0298;0,001;-0,0059;-6,09;2,95;1,6
45,329280,0298;0,001;-0,0059;-6,09;2,95;1,6
45,338520,0308;-0,0017;0,001;-6,22;2,86;1,54
45,34850,0308;-0,0017;0,001;-6,22;2,86;1,54
45,363540,031;0;-0,0076;-6,27;2,92;1,47
45,377680,0239;-0,0029;-0,0039;-5,98;2,73;1,76
45,38810,0239;-0,0029;-0,0039;-5,98;2,73;1,76
45,397150,0286;-0,0012;-0,0071;-5,92;3,09;1,66
45,406440,0286;-0,0012;-0,0071;-5,92;3,09;1,66
45,416810,0286;-0,0012;-0,0071;-5,92;3,09;1,66