Time;AccX;AccY;AccZ;GyX;GyY;GyZ
;Body_Start;PosX;PosY;PosZ;RotX;RotY;RotZ;Body_Hips;PosX;PosY;PosZ;RotX;RotY;RotZ;Body_SpineLower;PosX;PosY;PosZ;RotX;RotY;RotZ;Body_SpineMiddle;PosX;PosY;PosZ;RotX;RotY;RotZ;Hand_Thumb2;PosX;PosY;PosZ;RotX;RotY;RotZ;Body_Chest;PosX;PosY;PosZ;RotX;RotY;RotZ;Body_Neck;PosX;PosY;PosZ;RotX;RotY;RotZ;Hand_Index2;PosX;PosY;PosZ;RotX;RotY;RotZ;Hand_Index3;PosX;PosY;PosZ;RotX;RotY;RotZ;Hand_Middle1;PosX;PosY;PosZ;RotX;RotY;RotZ;FullBody_LeftArmUpper;PosX;PosY;PosZ;RotX;RotY;RotZ;XRHand_MiddleMetacarpal;PosX;PosY;PosZ;RotX;RotY;RotZ;Hand_Ring1;PosX;PosY;PosZ;RotX;RotY;RotZ;Hand_Ring2;PosX;PosY;PosZ;RotX;RotY;RotZ;XRHand_MiddleDistal;PosX;PosY;PosZ;RotX;RotY;RotZ;XRHand_MiddleTip;PosX;PosY;PosZ;RotX;RotY;RotZ;Hand_Pinky1;PosX;PosY;PosZ;RotX;RotY;RotZ;Body_RightHandWristTwist;PosX;PosY;PosZ;RotX;RotY;RotZ;FullBody_LeftHandPalm;PosX;PosY;PosZ;RotX;RotY;RotZ;XRHand_RingDistal;PosX;PosY;PosZ;RotX;RotY;RotZ;Body_LeftHandThumbMetacarpal;PosX;PosY;PosZ;RotX;RotY;RotZ;Hand_MiddleTip;PosX;PosY;PosZ;RotX;RotY;RotZ;FullBody_LeftHandThumbDistal;PosX;PosY;PosZ;RotX;RotY;RotZ;Body_LeftHandThumbTip;PosX;PosY;PosZ;RotX;RotY;RotZ;Body_LeftHandIndexMetacarpal;PosX;PosY;PosZ;RotX;RotY;RotZ;XRHand_LittleTip;PosX;PosY;PosZ;RotX;RotY;RotZ
24,279930,001;-0,0376;-0,0317;-7,28;0,4;-1,62;0;-0,0026;0,9605;0,3091;336,2408;0,0476;132,4456;-0,0026;-0,0782;0,0738;60,0000;0,0000;0,0000;1;0,0000;0,9295;0,2520;336,2408;0,0476;132,4456;0,0000;-0,0196;0,0460;60,0000;0,0000;0,0000;2;-0,0296;0,9738;0,2704;308,0598;329,9975;78,6840;-0,0296;-0,0579;0,0489;51,6115;275,3819;4,1233;3;-0,0496;0,9992;0,2877;321,2142;359,9280;66,6177;-0,0496;-0,0832;0,0508;51,8386;288,3510;4,7521;4;-0,0693;1,0203;0,3139;339,9814;35,1036;40,0903;-0,0693;-0,1096;0,0573;39,2669;275,3753;5,1860;5;-0,0888;1,0290;0,3332;339,9814;35,1036;40,0903;-0,0888;-0,1243;0,0597;39,2669;275,3753;5,1860;6;-0,0195;0,9634;0,2769;336,2408;0,0476;132,4456;-0,0195;-0,0560;0,0557;60,0000;0,0000;0,0000;7;-0,0234;0,9882;0,3304;343,8776;356,8294;129,9592;-0,0234;-0,1059;0,0874;65,5669;342,3214;347,7483;8;-0,0281;0,9987;0,3666;340,4194;2,1344;131,3237;-0,0281;-0,1402;0,1022;69,5979;341,6257;344,1233;9;-0,0308;1,0068;0,3893;340,6637;6,5349;131,7574;-0,0308;-0,1629;0,1102;74,5888;347,3028;347,6234;10;-0,0318;1,0133;0,4105;340,6637;6,5349;131,7574;-0,0318;-0,1840;0,1170;74,5888;347,3028;347,6234;11;-0,0034;0,9504;0,2803;336,2408;0,0476;132,4456;-0,0034;-0,0532;0,0564;60,0000;0,0000;0,0000;12;-0,0017;0,9705;0,3378;342,8833;2,6422;132,1387;-0,0017;-0,1032;0,0913;68,6740;5,1072;3,5732;13;-0,0003;0,9831;0,3786;341,2395;5,2612;132,6390;-0,0003;-0,1430;0,1068;70,8405;6,8927;3,9465;14;0,0007;0,9919;0,4044;343,0079;3,6647;137,9017;0,0007;-0,1688;0,1157;68,6654;7,1655;359,4148;15;0,0023;0,9981;0,4284;343,0079;3,6647;137,9017;0,0023;-0,1915;0,1257;68,6654;7,1655;359,4148;16;0,0149;0,9371;0,2864;336,2408;0,0476;132,4456;0,0149;-0,0526;0,0581;60,0000;0,0000;0,0000;17;0,0174;0,9573;0,3361;340,7717;8,3192;135,3393;0,0174;-0,0992;0,0844;59,9055;14,2352;6,4762;18;0,0221;0,9701;0,3723;334,5050;14,8989;136,8895;0,0221;-0,1328;0,1033;61,0898;15,0544;3,3200;19;0,0255;0,9814;0,3953;328,6292;15,8697;137,1893;0,0255;-0,1559;0,1156;65,8990;7,3875;355,6908;20;0,0273;0,9929;0,4161;328,6292;15,8697;137,1893;0,0273;-0,1773;0,1268;65,8990;7,3875;355,6908;21;0,0229;0,9335;0,2872;344,5642;14,9136;151,5652;0,0229;-0,0536;0,0548;61,4155;33,5081;5,2801;22;0,0348;0,9456;0,3295;342,4301;14,7750;141,0811;0,0348;-0,0935;0,0729;44,5331;30,4668;14,6805;23;0,0459;0,9548;0,3577;331,4808;30,1174;141,0016;0,0459;-0,1149;0,0917;52,1558;40,7566;17,1373;24;0,0540;0,9644;0,3730;324,7365;27,9593;142,0460;0,0540;-0,1308;0,1010;58,1497;33,2262;11,0458;25;0,0604;0,9763;0,3896;324,7365;27,9593;142,0460;0,0604;-0,1487;0,1117;58,1497;33,2262;11,0458
24,30760,009;-0,0349;-0,0405;-6,86;0,47;-0,59;0;-0,0026;0,9624;0,3082;335,5663;0,3026;133,2018;-0,0026;-0,0782;0,0738;60,0000;0,0000;0,0000;1;0,0000;0,9309;0,2519;335,5663;0,3026;133,2018;0,0000;-0,0196;0,0460;60,0000;0,0000;0,0000;2;-0,0296;0,9740;0,2689;307,0771;318,7586;93,4818;-0,0296;-0,0579;0,0489;51,6115;275,3819;4,1233;3;-0,0496;0,9997;0,2835;315,5163;354,1543;76,0593;-0,0496;-0,0832;0,0508;51,8386;288,3510;4,7521;4;-0,0693;1,0233;0,3074;316,6017;15,4122;52,0951;-0,0693;-0,1096;0,0573;39,2669;275,3753;5,1860;5;-0,0888;1,0401;0,3247;316,6017;15,4122;52,0951;-0,0888;-0,1243;0,0597;39,2669;275,3753;5,1860;6;-0,0195;0,9643;0,2759;335,5663;0,3026;133,2018;-0,0195;-0,0560;0,0557;60,0000;0,0000;0,0000;7;-0,0234;0,9904;0,3297;344,2289;356,1920;131,0110;-0,0234;-0,1059;0,0874;65,5669;342,3214;347,7483;8;-0,0281;1,0007;0,3659;339,4238;2,8898;131,9201;-0,0281;-0,1402;0,1022;69,5979;341,6257;344,1233;9;-0,0308;1,0092;0,3884;339,5930;7,3620;132,2545;-0,0308;-0,1629;0,1102;74,5888;347,3028;347,6234;10;-0,0318;1,0161;0,4095;339,5930;7,3620;132,2545;-0,0318;-0,1840;0,1170;74,5888;347,3028;347,6234;11;-0,0034;0,9519;0,2792;335,5663;0,3026;133,2018;-0,0034;-0,0532;0,0564;60,0000;0,0000;0,0000;12;-0,0017;0,9729;0,3372;343,5888;2,1237;133,0464;-0,0017;-0,1032;0,0913;68,6740;5,1072;3,5732;13;-0,0003;0,9850;0,3781;341,3006;5,3761;133,3777;-0,0003;-0,1430;0,1068;70,8405;6,8927;3,9465;14;0,0007;0,9938;0,4039;343,0026;3,8829;138,6192;0,0007;-0,1688;0,1157;68,6654;7,1655;359,4148;15;0,0023;1,0000;0,4279;343,0026;3,8829;138,6192;0,0023;-0,1915;0,1257;68,6654;7,1655;359,4148;16;0,0149;0,9390;0,2860;335,5663;0,3026;133,2018;0,0149;-0,0526;0,0581;60,0000;0,0000;0,0000;17;0,0174;0,9599;0,3354;345,9994;2,8130;137,7489;0,0174;-0,0992;0,0844;59,9055;14,2352;6,4762;18;0,0221;0,9693;0,3730;340,1207;8,2616;140,1954;0,0221;-0,1328;0,1033;61,0898;15,0544;3,3200;19;0,0255;0,9782;0,3976;334,1482;8,8558;140,7303;0,0255;-0,1559;0,1156;65,8990;7,3875;355,6908;20;0,0273;0,9875;0,4198;334,1482;8,8558;140,7303;0,0273;-0,1773;0,1268;65,8990;7,3875;355,6908;21;0,0229;0,9356;0,2868;343,7345;15,3373;152,0777;0,0229;-0,0536;0,0548;61,4155;33,5081;5,2801;22;0,0348;0,9483;0,3288;351,8383;7,6392;142,6907;0,0348;-0,0935;0,0729;44,5331;30,4668;14,6805;23;0,0459;0,9526;0,3588;348,9446;15,4397;146,4350;0,0459;-0,1149;0,0917;52,1558;40,7566;17,1373;24;0,0540;0,9565;0,3779;343,4999;12,1781;147,1196;0,0540;-0,1308;0,1010;58,1497;33,2262;11,0458;25;0,0604;0,9618;0,3987;343,4999;12,1781;147,1196;0,0604;-0,1487;0,1117;58,1497;33,2262;11,0458
24,335620,0054;-0,0339;-0,0432;-6,37;-0,25;-0,24;0;-0,0050;0,9625;0,3084;335,5050;0,3560;133,1730;-0,0050;0,9985;0,5250;341,0574;345,5279;2,9060;1;0,0129;0,9309;0,2522;335,5050;0,3560;133,1730;0,0129;0,9826;0,4646;341,0574;345,5279;2,9060;2;-0,0243;0,9739;0,2691;305,2634;317,7817;94,4744;-0,0243;0,9761;0,4954;1,7495;310,6011;85,8988;3;-0,0488;1,0003;0,2829;313,6890;354,4906;75,2826;-0,0488;0,9751;0,5164;353,4464;310,4114;76,3416;4;-0,0742;1,0246;0,3060;309,7692;5,4586;57,7424;-0,0742;0,9790;0,5380;359,3304;293,7023;87,2337;5;-0,0970;1,0433;0,3217;309,7692;5,4586;57,7424;-0,0970;0,9800;0,5470;359,3304;293,7023;87,2337;6;-0,0148;0,9643;0,2762;335,5050;0,3560;133,1730;-0,0148;0,9839;0,4968;341,0574;345,5279;2,9060;7;-0,0326;0,9905;0,3299;344,6511;355,9914;131,0263;-0,0326;1,0055;0,5488;17,0359;354,3878;5,8243;8;-0,0362;1,0005;0,3662;339,5395;3,0281;131,8629;-0,0362;0,9945;0,5847;55,7784;358,7722;5,4129;9;-0,0365;1,0090;0,3888;339,6895;7,5239;132,1969;-0,0365;0,9745;0,5983;69,3005;9,5236;13,0701;10;-0,0349;1,0158;0,4098;339,6895;7,5239;132,1969;-0,0349;0,9541;0,6070;69,3005;9,5236;13,0701;11;0,0014;0,9520;0,2794;335,5050;0,3560;133,1730;0,0014;0,9861;0,4979;341,0574;345,5279;2,9060;12;-0,0113;0,9731;0,3374;343,9431;2,5452;132,8480;-0,0113;1,0109;0,5520;7,4550;352,7395;359,9641;13;-0,0167;0,9848;0,3784;341,2170;6,3039;133,0391;-0,0167;1,0054;0,5940;28,3478;352,7240;358,5351;14;-0,0197;0,9937;0,4042;342,8364;4,8689;138,2754;-0,0197;0,9924;0,6179;33,6601;352,0483;352,6617;15;-0,0222;1,0000;0,4281;342,8364;4,8689;138,2754;-0,0222;0,9796;0,6390;33,6601;352,0483;352,6617;16;0,0190;0,9391;0,2863;335,5050;0,3560;133,1730;0,0190;0,9888;0,5016;341,0574;345,5279;2,9060;17;0,0087;0,9600;0,3357;345,9611;2,8775;137,7115;0,0087;1,0059;0,5515;355,2794;354,7098;354,1851;18;0,0051;0,9694;0,3732;340,1420;8,2818;140,1683;0,0051;1,0091;0,5899;13,2050;351,9004;349,6738;19;0,0015;0,9784;0,3978;334,1654;8,8830;140,7010;0,0015;1,0030;0,6154;21,1760;346,5690;347,1448;20;-0,0033;0,9876;0,4200;334,1654;8,8830;140,7010;-0,0033;0,9957;0,6380;21,1760;346,5690;347,1448;21;0,0268;0,9356;0,2871;343,6821;15,3909;152,0348;0,0268;0,9858;0,5040;346,3555;1,5695;334,2292;22;0,0280;0,9484;0,3291;352,5811;7,4626;142,5821;0,0280;0,9965;0,5480;347,6150;0,6518;344,9672;23;0,0283;0,9523;0,3591;349,8859;15,1210;146,4414;0,0283;1,0030;0,5779;10,5938;357,2119;338,5345;24;0,0273;0,9559;0,3783;344,5327;11,8118;147,0822;0,0273;0,9993;0,5977;12,9267;350,0352;337,1697;25;0,0239;0,9608;0,3992;344,5327;11,8118;147,0822;0,0239;0,9956;0,6189;12,9267;350,0352;337,1697
24,366320;-0,0308;-0,0437;-6,63;-1,44;-1,15;0;-0,0050;0,9625;0,3088;335,5186;0,3222;133,2265;-0,0050;0,9985;0,5250;341,0574;345,5279;2,9060;1;0,0129;0,9309;0,2526;335,5186;0,3222;133,2265;0,0129;0,9826;0,4646;341,0574;345,5279;2,9060;2;-0,0243;0,9739;0,2695;304,8310;317,5695;94,6478;-0,0243;0,9761;0,4954;1,7495;310,6011;85,8988;3;-0,0488;1,0004;0,2831;313,2760;354,5700;75,0524;-0,0488;0,9751;0,5164;353,4464;310,4114;76,3416;4;-0,0742;1,0249;0,3061;307,2665;359,8406;61,5869;-0,0742;0,9790;0,5380;359,3304;293,7023;87,2337;5;-0,0970;1,0442;0,3209;307,2665;359,8406;61,5869;-0,0970;0,9800;0,5470;359,3304;293,7023;87,2337;6;-0,0148;0,9643;0,2766;335,5186;0,3222;133,2265;-0,0148;0,9839;0,4968;341,0574;345,5279;2,9060;7;-0,0326;0,9905;0,3303;344,8520;355,9488;131,0566;-0,0326;1,0055;0,5488;17,0359;354,3878;5,8243;8;-0,0362;1,0004;0,3666;339,5311;3,2165;131,8349;-0,0362;0,9945;0,5847;55,7784;358,7722;5,4129;9;-0,0365;1,0088;0,3892;339,6774;7,7192;132,1659;-0,0365;0,9745;0,5983;69,3005;9,5236;13,0701;10;-0,0349;1,0157;0,4103;339,6774;7,7192;132,1659;-0,0349;0,9541;0,6070;69,3005;9,5236;13,0701;11;0,0014;0,9520;0,2798;335,5186;0,3222;133,2265;0,0014;0,9861;0,4979;341,0574;345,5279;2,9060;12;-0,0113;0,9730;0,3379;344,1076;2,6897;132,8255;-0,0113;1,0109;0,5520;7,4550;352,7395;359,9641;13;-0,0167;0,9847;0,3788;341,2596;6,5851;132,9835;-0,0167;1,0054;0,5940;28,3478;352,7240;358,5351;14;-0,0197;0,9935;0,4046;342,8051;5,2165;138,2087;-0,0197;0,9924;0,6179;33,6601;352,0483;352,6617;15;-0,0222;0,9998;0,4286;342,8051;5,2165;138,2087;-0,0222;0,9796;0,6390;33,6601;352,0483;352,6617;16;0,0190;0,9391;0,2868;335,5186;0,3222;133,2265;0,0190;0,9888;0,5016;341,0574;345,5279;2,9060;17;0,0087;0,9600;0,3361;345,9760;2,8599;137,7596;0,0087;1,0059;0,5515;355,2794;354,7098;354,1851;18;0,0051;0,9694;0,3737;340,1963;8,2199;140,2311;0,0051;1,0091;0,5899;13,2050;351,9004;349,6738;19;0,0015;0,9783;0,3983;334,2269;8,8064;140,7695;0,0015;1,0030;0,6154;21,1760;346,5690;347,1448;20;-0,0033;0,9876;0,4205;334,2269;8,8064;140,7695;-0,0033;0,9957;0,6380;21,1760;346,5690;347,1448;21;0,0268;0,9356;0,2875;343,6826;15,3645;152,0874;0,0268;0,9858;0,5040;346,3555;1,5695;334,2292;22;0,0280;0,9484;0,3295;352,6962;7,4978;142,5987;0,0280;0,9965;0,5480;347,6150;0,6518;344,9672;23;0,0283;0,9523;0,3595;350,1373;15,0589;146,4823;0,0283;1,0030;0,5779;10,5938;357,2119;338,5345;24;0,0273;0,9557;0,3787;344,8880;11,6815;147,1211;0,0273;0,9993;0,5977;12,9267;350,0352;337,1697;25;0,0239;0,9606;0,3997;344,8880;11,6815;147,1211;0,0239;0,9956;0,6189;12,9267;350,0352;337,1697
24,3982-0,01;-0,0308;-0,0408;-6,74;-0,24;-0,52;0;-0,0016;0,9623;0,3090;335,6363;359,9027;133,8091;-0,0016;0,9951;0,5277;344,8918;350,1875;0,2966;1;0,0118;0,9308;0,2527;335,6363;359,9027;133,8091;0,0118;0,9832;0,4653;344,8918;350,1875;0,2966;2;-0,0238;0,9737;0,2697;305,2566;317,0654;95,0472;-0,0238;0,9760;0,4975;359,4784;313,1438;80,1845;3;-0,0474;1,0000;0,2833;313,4969;354,0333;75,6103;-0,0474;0,9763;0,5196;351,1539;313,6613;70,5772;4;-0,0714;1,0244;0,3063;307,4531;359,1874;62,2458;-0,0714;0,9815;0,5425;355,4364;296,1545;82,4750;5;-0,0936;1,0437;0,3212;307,4531;359,1874;62,2458;-0,0936;0,9842;0,5524;355,4364;296,1545;82,4750;6;-0,0138;0,9641;0,2767;335,6363;359,9027;133,8091;-0,0138;0,9832;0,4991;344,8918;350,1875;0,2966;7;-0,0273;0,9902;0,3305;345,0451;355,6833;131,5678;-0,0273;1,0010;0,5540;13,2342;357,0442;3,3928;8;-0,0292;0,9999;0,3668;339,4279;3,1651;132,2874;-0,0292;0,9923;0,5906;43,5996;358,3504;0,9147;9;-0,0297;1,0084;0,3894;339,5128;7,7054;132,5954;-0,0297;0,9757;0,6081;55,7954;3,2218;2,7056;10;-0,0287;1,0153;0,4104;339,5128;7,7054;132,5954;-0,0287;0,9579;0,6214;55,7954;3,2218;2,7056;11;0,0025;0,9518;0,2799;335,6363;359,9027;133,8091;0,0025;0,9846;0,4993;344,8918;350,1875;0,2966;12;-0,0057;0,9728;0,3380;344,2169;2,4514;133,3479;-0,0057;1,0056;0,5561;10,5690;356,3168;357,9070;13;-0,0083;0,9844;0,3790;341,0090;6,6800;133,4045;-0,0083;0,9977;0,5979;25,4239;355,8867;356,3886;14;-0,0101;0,9933;0,4048;342,4010;5,4722;138,6080;-0,0101;0,9860;0,6226;29,0222;355,3237;350,7739;15;-0,0114;0,9998;0,4287;342,4010;5,4722;138,6080;-0,0114;0,9749;0,6448;29,0222;355,3237;350,7739;16;0,0205;0,9391;0,2869;335,6363;359,9027;133,8091;0,0205;0,9865;0,5022;344,8918;350,1875;0,2966;17;0,0141;0,9599;0,3363;345,9743;2,6075;138,2990;0,0141;1,0000;0,5537;357,9175;358,8570;352,2973;18;0,0134;0,9693;0,3739;340,1476;7,9088;140,7853;0,0134;1,0014;0,5925;13,4416;355,9308;347,7648;19;0,0115;0,9782;0,3985;334,1389;8,4620;141,3380;0,0115;0,9953;0,6181;21,0578;350,3633;345,1692;20;0,0083;0,9875;0,4207;334,1389;8,4620;141,3380;0,0083;0,9880;0,6410;21,0578;350,3633;345,1692;21;0,0284;0,9357;0,2877;343,6582;15,0268;152,6531;0,0284;0,9831;0,5038;350,7239;5,7399;332,8443;22;0,0328;0,9485;0,3297;352,2988;7,6284;143,1159;0,0328;0,9904;0,5483;346,2279;7,2463;343,3800;23;0,0366;0,9525;0,3597;349,6636;15,1840;146,9447;0,0366;0,9977;0,5777;3,9172;5,3786;337,5626;24;0,0385;0,9562;0,3789;344,4831;11,7284;147,6265;0,0385;0,9963;0,5978;3,3579;359,4966;337,2786;25;0,0385;0,9611;0,3998;344,4831;11,7284;147,6265;0,0385;0,9963;0,6196;3,3579;359,4966;337,2786
24,43304-0,0178;-0,0339;-0,0308;-6,2;0,31;0,6;0;-0,0025;0,9620;0,3088;335,6414;359,7237;134,3434;-0,0025;0,9944;0,5279;345,9008;349,6891;2,0698;1;0,0113;0,9305;0,2524;335,6414;359,7237;134,3434;0,0113;0,9837;0,4654;345,9008;349,6891;2,0698;2;-0,0240;0,9733;0,2695;305,7056;316,6925;95,5764;-0,0240;0,9750;0,4974;0,9089;313,0599;80,8513;3;-0,0476;0,9995;0,2832;313,7096;353,7763;76,1829;-0,0476;0,9745;0,5194;352,4386;313,0606;71,2871;4;-0,0719;1,0238;0,3062;307,6774;358,9605;62,8108;-0,0719;0,9789;0,5422;356,8514;295,4675;82,7837;5;-0,0943;1,0431;0,3213;307,6774;358,9605;62,8108;-0,0943;0,9811;0,5518;356,8514;295,4675;82,7837;6;-0,0143;0,9638;0,2765;335,6414;359,7237;134,3434;-0,0143;0,9825;0,4991;345,9008;349,6891;2,0698;7;-0,0283;0,9898;0,3303;345,1764;355,6467;132,0352;-0,0283;0,9991;0,5542;9,2590;356,9648;5,0452;8;-0,0303;0,9994;0,3666;339,2111;3,4081;132,6655;-0,0303;0,9930;0,5914;34,0680;358,9386;2,6994;9;-0,0307;1,0080;0,3892;339,1811;8,0565;132,9154;-0,0307;0,9795;0,6114;44,7796;3,3136;3,5514;10;-0,0295;1,0150;0,4101;339,1811;8,0565;132,9154;-0,0295;0,9646;0,6278;44,7796;3,3136;3,5514;11;0,0020;0,9516;0,2797;335,6414;359,7237;134,3434;0,0020;0,9844;0,4993;345,9008;349,6891;2,0698;12;-0,0069;0,9725;0,3378;344,2763;2,4442;133,8157;-0,0069;1,0044;0,5564;10,8017;356,5215;359,7795;13;-0,0094;0,9840;0,3788;341,0266;6,6534;133,8809;-0,0094;0,9964;0,5982;23,8616;356,6772;358,4536;14;-0,0109;0,9929;0,4046;342,4119;5,4726;139,0777;-0,0109;0,9853;0,6232;26,6882;356,3777;353,0465;15;-0,0119;0,9994;0,4285;342,4119;5,4726;139,0777;-0,0119;0,9751;0,6459;26,6882;356,3777;353,0465;16;0,0200;0,9389;0,2867;335,6414;359,7237;134,3434;0,0200;0,9869;0,5024;345,9008;349,6891;2,0698;17;0,0131;0,9597;0,3361;345,9443;2,5463;138,7946;0,0131;0,9995;0,5540;358,5257;358,5582;354,1871;18;0,0121;0,9691;0,3736;340,1116;7,7632;141,3015;0,0121;1,0005;0,5928;12,2762;356,4927;349,7997;19;0,0105;0,9781;0,3982;334,0897;8,2642;141,8748;0,0105;0,9949;0,6185;19,7502;351,3341;347,4490;20;0,0076;0,9874;0,4205;334,0897;8,2642;141,8748;0,0076;0,9881;0,6416;19,7502;351,3341;347,4490;21;0,0279;0,9356;0,2874;343,5359;14,9295;153,1442;0,0279;0,9837;0,5039;351,2336;5,3831;334,7927;22;0,0321;0,9484;0,3295;352,2671;7,7143;143,5677;0,0321;0,9906;0,5485;346,6968;6,7118;345,3737;23;0,0356;0,9525;0,3595;349,4483;15,3313;147,3835;0,0356;0,9976;0,5780;4,2535;5,5210;339,5067;24;0,0375;0,9562;0,3786;344,3326;11,8065;148,0919;0,0375;0,9961;0,5981;3,8804;359,6247;339,1776;25;0,0376;0,9613;0,3995;344,3326;11,8065;148,0919;0,0376;0,9959;0,6199;3,8804;359,6247;339,1776
24,46081-0,0117;-0,0188;-0,0408;-4,72;3,91;3,63;0;-0,0033;0,9616;0,3087;335,7020;359,2737;135,3645;-0,0033;0,9925;0,5280;347,7525;348,9436;4,8309;1;0,0111;0,9301;0,2523;335,7020;359,2737;135,3645;0,0111;0,9840;0,4653;347,7525;348,9436;4,8309;2;-0,0238;0,9727;0,2694;306,4764;315,8180;96,6376;-0,0238;0,9727;0,4970;2,2243;313,1765;81,7337;3;-0,0474;0,9986;0,2831;313,9763;352,9342;77,4368;-0,0474;0,9715;0,5191;353,5411;312,3770;72,2005;4;-0,0720;1,0228;0,3063;307,8598;357,8536;64,2780;-0,0720;0,9753;0,5416;358,1626;294,7575;83,3295;5;-0,0946;1,0420;0,3213;307,8598;357,8536;64,2780;-0,0946;0,9768;0,5509;358,1626;294,7575;83,3295;6;-0,0145;0,9632;0,2764;335,7020;359,2737;135,3645;-0,0145;0,9806;0,4989;347,7525;348,9436;4,8309;7;-0,0295;0,9891;0,3302;345,3661;355,3965;132,9722;-0,0295;0,9952;0,5543;6,9204;356,8072;7,8076;8;-0,0315;0,9986;0,3666;338,9486;3,4160;133,5202;-0,0315;0,9907;0,5917;27,1750;359,5799;5,5656;9;-0,0317;1,0073;0,3891;338,7941;8,1406;133,7184;-0,0317;0,9796;0,6132;35,4958;3,8888;5,8848;10;-0,0302;1,0145;0,4100;338,7941;8,1406;133,7184;-0,0302;0,9676;0,6318;35,4958;3,8888;5,8848;11;0,0017;0,9512;0,2796;335,7020;359,2737;135,3645;0,0017;0,9834;0,4992;347,7525;348,9436;4,8309;12;-0,0083;0,9720;0,3377;344,3357;2,2216;134,7562;-0,0083;1,0015;0,5567;12,0811;356,9114;2,7566;13;-0,0105;0,9835;0,3788;341,0238;6,3689;134,8418;-0,0105;0,9926;0,5984;22,1332;357,7170;1,6413;14;-0,0116;0,9924;0,4045;342,4301;5,2106;140,0311;-0,0116;0,9823;0,6237;23,1245;357,7218;356,5453;15;-0,0121;0,9989;0,4284;342,4301;5,2106;140,0311;-0,0121;0,9736;0,6470;23,1245;357,7218;356,5453;16;0,0195;0,9387;0,2866;335,7020;359,2737;135,3645;0,0195;0,9867;0,5023;347,7525;348,9436;4,8309;17;0,0119;0,9595;0,3360;345,9645;2,2865;139,7540;0,0119;0,9978;0,5543;359,8454;358,1218;357,1834;18;0,0106;0,9689;0,3735;340,0703;7,3813;142,2950;0,0106;0,9979;0,5930;10,8129;357,1461;352,9748;19;0,0093;0,9779;0,3982;334,0424;7,7654;142,9134;0,0093;0,9929;0,6189;17,6787;352,6204;350,9771;20;0,0068;0,9872;0,4204;334,0424;7,7654;142,9134;0,0068;0,9871;0,6423;17,6787;352,6204;350,9771;21;0,0276;0,9355;0,2873;343,3490;14,6285;154,0972;0,0276;0,9839;0,5038;352,2840;4,8193;337,9157;22;0,0313;0,9485;0,3294;352,2667;7,5954;144,4836;0,0313;0,9900;0,5486;347,6469;5,8650;348,5687;23;0,0344;0,9526;0,3594;349,2375;15,2241;148,2930;0,0344;0,9965;0,5783;4,5177;5,8687;342,6742;24;0,0364;0,9564;0,3785;344,1988;11,5991;149,0349;0,0364;0,9950;0,5983;4,4556;359,9615;342,3011;25;0,0366;0,9614;0,3995;344,1988;11,5991;149,0349;0,0366;0,9945;0,6201;4,4556;359,9615;342,3011
24,48878-0,0007;-0,0217;-0,031;-3,3;5,9;4,92;0;-0,0046;0,9615;0,3087;335,6374;358,9737;135,6040;-0,0046;0,9923;0,5287;348,0658;348,7936;5,0155;1;0,0099;0,9300;0,2524;335,6374;358,9737;135,6040;0,0099;0,9842;0,4660;348,0658;348,7936;5,0155;2;-0,0250;0,9725;0,2693;306,6271;315,3960;96,9234;-0,0250;0,9726;0,4976;2,3544;313,0656;81,6551;3;-0,0486;0,9984;0,2830;314,0184;352,6702;77,6379;-0,0486;0,9713;0,5196;353,6421;312,1906;72,1230;4;-0,0733;1,0226;0,3062;307,8775;357,5085;64,5414;-0,0733;0,9750;0,5421;358,2274;294,4971;83,2334;5;-0,0959;1,0418;0,3213;307,8775;357,5085;64,5414;-0,0959;0,9766;0,5513;358,2274;294,4971;83,2334;6;-0,0157;0,9631;0,2764;335,6374;358,9737;135,6040;-0,0157;0,9805;0,4996;348,0658;348,7936;5,0155;7;-0,0308;0,9890;0,3302;345,3986;355,1597;133,1808;-0,0308;0,9948;0,5551;7,2078;356,7120;8,0332;8;-0,0330;0,9985;0,3665;338,7406;3,3912;133,6526;-0,0330;0,9901;0,5924;28,3231;359,6809;5,8823;9;-0,0331;1,0073;0,3890;338,5175;8,1884;133,8061;-0,0331;0,9786;0,6137;36,5854;4,1049;6,3351;10;-0,0316;1,0146;0,4099;338,5175;8,1884;133,8061;-0,0316;0,9662;0,6321;36,5854;4,1049;6,3351;11;0,0004;0,9511;0,2797;335,6374;358,9737;135,6040;0,0004;0,9834;0,5000;348,0658;348,7936;5,0155;12;-0,0097;0,9720;0,3377;344,2630;2,0471;134,9479;-0,0097;1,0012;0,5575;12,2964;356,7603;2,9985;13;-0,0121;0,9835;0,3788;340,9235;6,1999;135,0260;-0,0121;0,9921;0,5991;22,2710;357,6101;1,8993;14;-0,0131;0,9925;0,4045;342,3282;5,0502;140,2152;-0,0131;0,9817;0,6244;23,0729;357,6312;356,8281;15;-0,0137;0,9990;0,4284;342,3282;5,0502;140,2152;-0,0137;0,9730;0,6477;23,0729;357,6312;356,8281;16;0,0182;0,9387;0,2867;335,6374;358,9737;135,6040;0,0182;0,9868;0,5031;348,0658;348,7936;5,0155;17;0,0105;0,9595;0,3361;345,8380;2,0700;139,9657;0,0105;0,9975;0,5551;0,1141;357,8810;357,4328;18;0,0091;0,9690;0,3736;339,9308;7,1422;142,5019;0,0091;0,9975;0,5938;11,0356;356,9590;353,2265;19;0,0077;0,9781;0,3982;333,8962;7,5070;143,1273;0,0077;0,9924;0,6197;17,8308;352,4735;351,2288;20;0,0051;0,9874;0,4205;333,8962;7,5070;143,1273;0,0051;0,9865;0,6431;17,8308;352,4735;351,2288;21;0,0263;0,9355;0,2875;343,2289;14,3692;154,2990;0,0263;0,9840;0,5046;352,5359;4,6734;338,1773;22;0,0300;0,9486;0,3295;352,1844;7,4127;144,6766;0,0300;0,9899;0,5494;347,9022;5,6737;348,8408;23;0,0330;0,9528;0,3595;349,0399;15,0899;148,4689;0,0330;0,9963;0,5791;4,7486;5,7641;342,9429;24;0,0350;0,9566;0,3787;344,0185;11,4418;149,2278;0,0350;0,9946;0,5992;4,7392;359,8463;342,5426;25;0,0350;0,9617;0,3996;344,0185;11,4418;149,2278;0,0350;0,9940;0,6210;4,7392;359,8463;342,5426
24,516450,0034;-0,0327;-0,0159;0,1;8,51;6,52;0;-0,0084;0,9614;0,3088;335,6557;358,9241;135,6813;-0,0084;0,9910;0,5309;348,0216;348,8151;4,9066;1;0,0062;0,9300;0,2525;335,6557;358,9241;135,6813;0,0062;0,9828;0,4682;348,0216;348,8151;4,9066;2;-0,0288;0,9724;0,2694;306,7324;315,4168;96,8885;-0,0288;0,9713;0,4998;2,2102;313,0759;81,5957;3;-0,0523;0,9983;0,2832;314,1311;352,7212;77,6237;-0,0523;0,9701;0,5218;353,4842;312,1700;72,0672;4;-0,0771;1,0224;0,3064;307,9760;357,4997;64,5775;-0,0771;0,9739;0,5442;358,0605;294,4729;83,2283;5;-0,0997;1,0416;0,3215;307,9760;357,4997;64,5775;-0,0997;0,9755;0,5535;358,0605;294,4729;83,2283;6;-0,0194;0,9630;0,2765;335,6557;358,9241;135,6813;-0,0194;0,9792;0,5018;348,0216;348,8151;4,9066;7;-0,0345;0,9889;0,3303;345,4793;355,1841;133,2189;-0,0345;0,9935;0,5572;7,1277;356,6485;7,9251;8;-0,0367;0,9984;0,3666;338,6211;3,6248;133,6243;-0,0367;0,9889;0,5946;28,5670;359,6077;5,7740;9;-0,0369;1,0072;0,3891;338,3494;8,4836;133,7444;-0,0369;0,9773;0,6158;36,8130;4,0233;6,2378;10;-0,0354;1,0145;0,4099;338,3494;8,4836;133,7444;-0,0354;0,9648;0,6341;36,8130;4,0233;6,2378;11;-0,0033;0,9510;0,2798;335,6557;358,9241;135,6813;-0,0033;0,9821;0,5021;348,0216;348,8151;4,9066;12;-0,0134;0,9719;0,3378;344,2758;2,0902;134,9935;-0,0134;0,9999;0,5597;11,9414;356,6411;2,8932;13;-0,0159;0,9834;0,3789;340,8956;6,2795;135,0604;-0,0159;0,9911;0,6013;21,8952;357,4684;1,7823;14;-0,0170;0,9924;0,4046;342,2843;5,1451;140,2476;-0,0170;0,9809;0,6267;22,6170;357,4925;356,7200;15;-0,0176;0,9989;0,4285;342,2843;5,1451;140,2476;-0,0176;0,9724;0,6500;22,6170;357,4925;356,7200;16;0,0145;0,9386;0,2868;335,6557;358,9241;135,6813;0,0145;0,9854;0,5053;348,0216;348,8151;4,9066;17;0,0068;0,9595;0,3362;345,8039;2,0573;140,0353;0,0068;0,9962;0,5573;0,0442;357,7803;357,3369;18;0,0053;0,9690;0,3737;339,8817;7,1304;142,5679;0,0053;0,9962;0,5960;10,9374;356,8432;353,1312;19;0,0038;0,9781;0,3983;333,8369;7,4960;143,1933;0,0038;0,9912;0,6219;17,6644;352,3585;351,1466;20;0,0012;0,9874;0,4206;333,8369;7,4960;143,1933;0,0012;0,9853;0,6452;17,6644;352,3585;351,1466;21;0,0226;0,9355;0,2876;343,2278;14,3295;154,3750;0,0226;0,9826;0,5068;352,5226;4,6874;338,0617;22;0,0263;0,9486;0,3297;352,1630;7,4516;144,7355;0,0263;0,9885;0,5516;347,9127;5,6908;348,7234;23;0,0292;0,9527;0,3596;348,9073;15,1909;148,5181;0,0292;0,9949;0,5813;4,7684;5,7442;342,8271;24;0,0312;0,9566;0,3788;343,8897;11,5356;149,2868;0,0312;0,9932;0,6013;4,7880;359,8134;342,4223;25;0,0313;0,9618;0,3997;343,8897;11,5356;149,2868;0,0313;0,9926;0,6231;4,7880;359,8134;342,4223
24,544680,05;-0,033;-0,0398;10,05;26,72;10,27;0;-0,0105;0,9615;0,3088;335,6675;358,9121;135,9683;-0,0105;0,9904;0,5322;347,8441;348,8851;4,3987;1;0,0040;0,9300;0,2524;335,6675;358,9121;135,9683;0,0040;0,9820;0,4695;347,8441;348,8851;4,3987;2;-0,0310;0,9724;0,2694;306,9613;315,3778;97,0834;-0,0310;0,9709;0,5011;1,7700;313,0722;81,3268;3;-0,0546;0,9983;0,2832;314,2560;352,6901;77,8869;-0,0546;0,9699;0,5231;353,0314;312,1808;71,8047;4;-0,0793;1,0223;0,3065;308,0722;357,3649;64,9243;-0,0793;0,9740;0,5455;357,5515;294,4708;83,1159;5;-0,1019;1,0415;0,3216;308,0722;357,3649;64,9243;-0,1019;0,9758;0,5547;357,5515;294,4708;83,1159;6;-0,0216;0,9630;0,2765;335,6675;358,9121;135,9683;-0,0216;0,9787;0,5031;347,8441;348,8851;4,3987;7;-0,0367;0,9889;0,3303;345,5475;355,2956;133,4518;-0,0367;0,9933;0,5585;6,5807;356,4407;7,3931;8;-0,0390;0,9983;0,3666;338,1911;4,2246;133,6816;-0,0390;0,9889;0,5958;27,5198;359,1111;5,1179;9;-0,0393;1,0073;0,3890;337,8454;9,1779;133,7299;-0,0393;0,9778;0,6173;35,7083;3,3405;5,4139;10;-0,0380;1,0148;0,4097;337,8454;9,1779;133,7299;-0,0380;0,9657;0,6359;35,7083;3,3405;5,4139;11;-0,0055;0,9511;0,2797;335,6675;358,9121;135,9683;-0,0055;0,9814;0,5034;347,8441;348,8851;4,3987;12;-0,0155;0,9719;0,3378;344,2807;2,1805;135,2445;-0,0155;0,9994;0,5609;11,1129;356,3862;2,3708;13;-0,0181;0,9835;0,3788;340,8248;6,4150;135,2960;-0,0181;0,9912;0,6027;20,9720;357,1096;1,2195;14;-0,0194;0,9925;0,4045;342,1911;5,3093;140,4790;-0,0194;0,9814;0,6282;21,5814;357,1342;356,1681;15;-0,0202;0,9990;0,4284;342,1911;5,3093;140,4790;-0,0202;0,9733;0,6517;21,5814;357,1342;356,1681;16;0,0123;0,9387;0,2867;335,6675;358,9121;135,9683;0,0123;0,9846;0,5066;347,8441;348,8851;4,3987;17;0,0047;0,9596;0,3361;345,7958;2,0748;140,3139;0,0047;0,9955;0,5585;359,8686;357,6462;356,8349;18;0,0031;0,9691;0,3736;339,8009;7,1575;142,8414;0,0031;0,9956;0,5972;10,6512;356,6266;352,6281;19;0,0016;0,9782;0,3982;333,7250;7,5155;143,4710;0,0016;0,9908;0,6232;17,2679;352,1003;350,6629;20;-0,0012;0,9876;0,4204;333,7250;7,5155;143,4710;-0,0012;0,9850;0,6465;17,2679;352,1003;350,6629;21;0,0204;0,9356;0,2875;343,1696;14,3588;154,6416;0,0204;0,9817;0,5081;352,4875;4,7205;337,5309;22;0,0241;0,9488;0,3295;352,1536;7,5755;144,9803;0,0241;0,9877;0,5529;347,8825;5,7606;348,1855;23;0,0271;0,9529;0,3595;348,5102;15,5210;148,7372;0,0271;0,9941;0,5826;4,6856;5,6742;342,3032;24;0,0291;0,9569;0,3786;343,4914;11,8482;149,5348;0,0291;0,9924;0,6026;4,6970;359,7295;341,9064;25;0,0291;0,9623;0,3995;343,4914;11,8482;149,5348;0,0291;0,9919;0,6244;4,6970;359,7295;341,9064
24,572580,0212;-0,0139;-0,0369;14,42;37,85;10,31;0;-0,0111;0,9616;0,3086;335,7523;358,7621;136,9510;-0,0111;0,9907;0,5325;347,4910;348,8927;3,9890;1;0,0035;0,9302;0,2522;335,7523;358,7621;136,9510;0,0035;0,9819;0,4699;347,4910;348,8927;3,9890;2;-0,0317;0,9724;0,2693;307,6787;314,9658;97,9359;-0,0317;0,9712;0,5015;1,2293;313,0611;81,2571;3;-0,0553;0,9980;0,2833;314,5275;352,1869;79,0236;-0,0553;0,9705;0,5235;352,4863;312,1689;71,7435;4;-0,0800;1,0219;0,3066;308,2928;356,6870;66,2062;-0,0800;0,9749;0,5459;357,0158;294,4637;83,2217;5;-0,1026;1,0410;0,3218;308,2928;356,6870;66,2062;-0,1026;0,9770;0,5551;357,0158;294,4637;83,2217;6;-0,0223;0,9630;0,2763;335,7523;358,7621;136,9510;-0,0223;0,9790;0,5034;347,4910;348,8927;3,9890;7;-0,0373;0,9888;0,3301;345,7165;355,3886;134,3375;-0,0373;0,9939;0,5587;5,7081;356,1922;6,9306;8;-0,0397;0,9981;0,3666;337,4673;5,0225;134,3058;-0,0397;0,9901;0,5962;25,5386;358,5572;4,5118;9;-0,0403;1,0073;0,3888;336,7970;10,3079;134,1559;-0,0403;0,9797;0,6179;33,4623;2,5537;4,5591;10;-0,0392;1,0153;0,4093;336,7970;10,3079;134,1559;-0,0392;0,9683;0,6370;33,4623;2,5537;4,5591;11;-0,0061;0,9513;0,2795;335,7523;358,7621;136,9510;-0,0061;0,9815;0,5038;347,4910;348,8927;3,9890;12;-0,0160;0,9720;0,3376;344,3376;2,2113;136,1662;-0,0160;0,9999;0,5612;10,3799;356,1189;1,9316;13;-0,0189;0,9835;0,3787;340,6328;6,5722;136,1765;-0,0189;0,9922;0,6030;19,9286;356,7543;0,7485;14;-0,0203;0,9926;0,4043;341,9586;5,5350;141,3485;-0,0203;0,9829;0,6287;20,4206;356,7828;355,7094;15;-0,0213;0,9992;0,4282;341,9586;5,5350;141,3485;-0,0213;0,9753;0,6524;20,4206;356,7828;355,7094;16;0,0118;0,9391;0,2864;335,7523;358,7621;136,9510;0,0118;0,9846;0,5070;347,4910;348,8927;3,9890;17;0,0041;0,9599;0,3358;345,8882;2,0300;141,2622;0,0041;0,9959;0,5588;359,5195;357,4573;356,4049;18;0,0024;0,9694;0,3734;339,5219;7,2314;143,7552;0,0024;0,9962;0,5976;10,0924;356,3852;352,2069;19;0,0008;0,9786;0,3979;333,3706;7,5389;144,4073;0,0008;0,9915;0,6235;16,6303;351,8307;350,2836;20;-0,0021;0,9881;0,4201;333,3706;7,5389;144,4073;-0,0021;0,9861;0,6469;16,6303;351,8307;350,2836;21;0,0198;0,9361;0,2872;343,0118;14,3438;155,5674;0,0198;0,9817;0,5085;352,2569;4,7050;337,0453;22;0,0235;0,9494;0,3292;352,2028;7,7537;145,8568;0,0235;0,9878;0,5533;347,6776;5,7521;347,6920;23;0,0265;0,9535;0,3592;347,5826;16,1557;149,5599;0,0265;0,9943;0,5829;4,3817;5,5548;341,8270;24;0,0284;0,9579;0,3781;342,5779;12,4140;150,4323;0,0284;0,9928;0,6030;4,3946;359,5964;341,4607;25;0,0284;0,9635;0,3988;342,5779;12,4140;150,4323;0,0284;0,9923;0,6248;4,3946;359,5964;341,4607
24,600070,0391;-0,0098;-0,0845;20,87;50,5;12,67;0;-0,0026;0,9620;0,3081;335,8421;358,2637;138,5322;-0,0026;-0,0782;0,0738;60,0000;0,0000;0,0000;1;0,0000;0,9306;0,2517;335,8421;358,2637;138,5322;0,0000;-0,0196;0,0460;60,0000;0,0000;0,0000;2;-0,0297;0,9725;0,2689;308,7843;313,9459;99,4384;-0,0297;-0,0579;0,0489;49,3700;293,4207;17,0323;3;-0,0490;0,9977;0,2829;314,8620;351,0448;80,9344;-0,0490;-0,0824;0,0573;44,2610;303,8924;15,1227;4;-0,0689;1,0215;0,3063;308,6048;355,5019;68,1710;-0,0689;-0,1058;0,0707;30,6686;288,5297;15,5208;5;-0,0893;1,0404;0,3216;308,6048;355,5019;68,1710;-0,0893;-0,1173;0,0779;30,6686;288,5297;15,5208;6;-0,0195;0,9632;0,2759;335,8421;358,2637;138,5322;-0,0195;-0,0560;0,0557;60,0000;0,0000;0,0000;7;-0,0234;0,9888;0,3297;345,8989;355,2269;135,7946;-0,0234;-0,1059;0,0874;77,2281;28,2075;30,0058;8;-0,0195;0,9979;0,3661;336,1295;5,9963;135,3033;-0,0195;-0,1427;0,0947;79,2542;144,4419;142,0878;9;-0,0168;1,0077;0,3881;334,4363;12,3749;134,5455;-0,0168;-0,1664;0,0911;70,8877;153,3440;148,7874;10;-0,0132;1,0165;0,4082;334,4363;12,3749;134,5455;-0,0132;-0,1876;0,0855;70,8877;153,3440;148,7874;11;-0,0034;0,9517;0,2790;335,8421;358,2637;138,5322;-0,0034;-0,0532;0,0564;60,0000;0,0000;0,0000;12;-0,0017;0,9723;0,3371;344,4012;1,9702;137,6573;-0,0017;-0,1032;0,0913;81,3750;40,0457;36,6585;13;0,0024;0,9837;0,3782;339,9086;6,8871;137,4784;0,0024;-0,1454;0,0962;83,9842;119,6296;114,4463;14;0,0049;0,9932;0,4037;341,0317;6,0589;142,6223;0,0049;-0,1726;0,0948;83,7467;123,6703;113,4151;15;0,0076;1,0002;0,4275;341,0317;6,0589;142,6223;0,0076;-0,1973;0,0944;83,7467;123,6703;113,4151;16;0,0149;0,9398;0,2858;335,8421;358,2637;138,5322;0,0149;-0,0526;0,0581;60,0000;0,0000;0,0000;17;0,0174;0,9606;0,3353;346,2543;1,5573;142,8156;0,0174;-0,0992;0,0844;70,9976;24,3455;15,7023;18;0,0226;0,9698;0,3729;338,7803;7,2836;145,1631;0,0226;-0,1359;0,0959;80,9893;40,3761;27,2130;19;0,0252;0,9794;0,3973;332,3026;7,6690;145,7967;0,0252;-0,1619;0,0991;88,8679;49,9882;35,9416;20;0,0262;0,9893;0,4193;332,3026;7,6690;145,7967;0,0262;-0,1861;0,1009;88,8679;49,9882;35,9416;21;0,0229;0,9371;0,2866;342,7083;14,0579;157,0458;0,0229;-0,0536;0,0548;61,4155;33,5081;5,2801;22;0,0348;0,9505;0,3286;352,7347;7,8785;147,1506;0,0348;-0,0935;0,0729;56,8732;31,1954;14,1224;23;0,0435;0,9544;0,3586;347,0031;16,6821;150,8711;0,0435;-0,1191;0,0872;70,6675;53,3540;28,3111;24;0,0488;0,9589;0,3774;342,0001;12,8578;151,8018;0,0488;-0,1381;0,0912;74,4802;38,0097;13,7452;25;0,0527;0,9648;0,3981;342,0001;12,8578;151,8018;0,0527;-0,1588;0,0969;74,4802;38,0097;13,7452
24,627760,0305;-0,0049;-0,1123;24,08;58,59;12,66;0;-0,0026;0,9623;0,3074;335,8172;357,9619;139,4686;-0,0026;-0,0782;0,0738;60,0000;0,0000;0,0000;1;0,0000;0,9309;0,2510;335,8172;357,9619;139,4686;0,0000;-0,0196;0,0460;60,0000;0,0000;0,0000;2;-0,0297;0,9726;0,2682;309,3887;313,3412;100,3371;-0,0297;-0,0579;0,0489;49,3700;293,4207;17,0323;3;-0,0490;0,9975;0,2823;315,0139;350,4280;82,0082;-0,0490;-0,0824;0,0573;44,2610;303,8924;15,1227;4;-0,0689;1,0213;0,3057;308,8586;355,3557;68,9153;-0,0689;-0,1058;0,0707;30,6686;288,5297;15,5208;5;-0,0893;1,0402;0,3211;308,8586;355,3557;68,9153;-0,0893;-0,1173;0,0779;30,6686;288,5297;15,5208;6;-0,0195;0,9633;0,2752;335,8172;357,9619;139,4686;-0,0195;-0,0560;0,0557;60,0000;0,0000;0,0000;7;-0,0234;0,9889;0,3290;345,9405;355,1293;136,6580;-0,0234;-0,1059;0,0874;77,2281;28,2075;30,0058;8;-0,0195;0,9981;0,3655;335,3498;6,4434;135,9205;-0,0195;-0,1427;0,0947;79,2542;144,4419;142,0878;9;-0,0168;1,0081;0,3873;332,9860;13,5336;134,7433;-0,0168;-0,1664;0,0911;70,8877;153,3440;148,7874;10;-0,0132;1,0174;0,4071;332,9860;13,5336;134,7433;-0,0132;-0,1876;0,0855;70,8877;153,3440;148,7874;11;-0,0034;0,9520;0,2784;335,8172;357,9619;139,4686;-0,0034;-0,0532;0,0564;60,0000;0,0000;0,0000;12;-0,0017;0,9726;0,3364;344,3603;1,8488;138,5253;-0,0017;-0,1032;0,0913;81,3750;40,0457;36,6585;13;0,0024;0,9841;0,3775;339,0060;7,4494;138,0987;0,0024;-0,1454;0,0962;83,9842;119,6296;114,4463;14;0,0049;0,9939;0,4029;339,6297;7,0341;143,1746;0,0049;-0,1726;0,0948;83,7467;123,6703;113,4151;15;0,0076;1,0015;0,4264;339,6297;7,0341;143,1746;0,0076;-0,1973;0,0944;83,7467;123,6703;113,4151;16;0,0149;0,9404;0,2852;335,8172;357,9619;139,4686;0,0149;-0,0526;0,0581;60,0000;0,0000;0,0000;17;0,0174;0,9612;0,3346;346,4805;1,2427;143,7344;0,0174;-0,0992;0,0844;70,9976;24,3455;15,7023;18;0,0226;0,9703;0,3723;337,7245;7,6990;145,8520;0,0226;-0,1359;0,0959;80,9893;40,3761;27,2130;19;0,0252;0,9803;0,3965;330,5645;8,5150;146,3272;0,0252;-0,1619;0,0991;88,8679;49,9882;35,9416;20;0,0262;0,9909;0,4181;330,5645;8,5150;146,3272;0,0262;-0,1861;0,1009;88,8679;49,9882;35,9416;21;0,0229;0,9377;0,2859;342,4508;13,8838;157,9000;0,0229;-0,0536;0,0548;61,4155;33,5081;5,2801;22;0,0348;0,9514;0,3279;353,2461;8,0515;147,8269;0,0348;-0,0935;0,0729;56,8732;31,1954;14,1224;23;0,0435;0,9550;0,3579;346,5994;17,2171;151,5719;0,0435;-0,1191;0,0872;70,6675;53,3540;28,3111;24;0,0488;0,9597;0,3767;341,4846;13,4071;152,5276;0,0488;-0,1381;0,0912;74,4802;38,0097;13,7452;25;0,0527;0,9657;0,3972;341,4846;13,4071;152,5276;0,0527;-0,1588;0,0969;74,4802;38,0097;13,7452
24,65566-0,0088;-0,0093;-0,1423;26,52;63,29;15,78;0;-0,0026;0,9624;0,3071;335,7216;357,7579;139,7972;-0,0026;-0,0782;0,0738;60,0000;0,0000;0,0000;1;0,0000;0,9309;0,2508;335,7216;357,7579;139,7972;0,0000;-0,0196;0,0460;60,0000;0,0000;0,0000;2;-0,0297;0,9726;0,2678;309,5159;313,0663;100,6171;-0,0297;-0,0579;0,0489;49,3700;293,4207;17,0323;3;-0,0490;0,9975;0,2819;315,0162;350,2351;82,2535;-0,0490;-0,0824;0,0573;44,2610;303,8924;15,1227;4;-0,0689;1,0212;0,3053;309,0194;355,8379;68,6742;-0,0689;-0,1058;0,0707;30,6686;288,5297;15,5208;5;-0,0893;1,0401;0,3207;309,0194;355,8379;68,6742;-0,0893;-0,1173;0,0779;30,6686;288,5297;15,5208;6;-0,0195;0,9634;0,2749;335,7216;357,7579;139,7972;-0,0195;-0,0560;0,0557;60,0000;0,0000;0,0000;7;-0,0234;0,9890;0,3286;345,9548;354,9449;136,9757;-0,0234;-0,1059;0,0874;77,2281;28,2075;30,0058;8;-0,0195;0,9981;0,3651;335,2214;6,2826;136,2197;-0,0195;-0,1427;0,0947;79,2542;144,4419;142,0878;9;-0,0168;1,0082;0,3869;332,6591;13,5549;134,9379;-0,0168;-0,1664;0,0911;70,8877;153,3440;148,7874;10;-0,0132;1,0176;0,4066;332,6591;13,5549;134,9379;-0,0132;-0,1876;0,0855;70,8877;153,3440;148,7874;11;-0,0034;0,9521;0,2781;335,7216;357,7579;139,7972;-0,0034;-0,0532;0,0564;60,0000;0,0000;0,0000;12;-0,0017;0,9728;0,3361;344,2447;1,7513;138,8097;-0,0017;-0,1032;0,0913;81,3750;40,0457;36,6585;13;0,0024;0,9844;0,3771;338,2318;7,9345;138,1588;0,0024;-0,1454;0,0962;83,9842;119,6296;114,4463;14;0,0049;0,9945;0,4023;338,2939;7,9695;143,1438;0,0049;-0,1726;0,0948;83,7467;123,6703;113,4151;15;0,0076;1,0027;0,4256;338,2939;7,9695;143,1438;0,0076;-0,1973;0,0944;83,7467;123,6703;113,4151;16;0,0149;0,9405;0,2849;335,7216;357,7579;139,7972;0,0149;-0,0526;0,0581;60,0000;0,0000;0,0000;17;0,0174;0,9615;0,3343;346,3750;1,1194;144,0296;0,0174;-0,0992;0,0844;70,9976;24,3455;15,7023;18;0,0226;0,9706;0,3719;336,4615;8,3575;145,8558;0,0226;-0,1359;0,0959;80,9893;40,3761;27,2130;19;0,0252;0,9811;0,3959;328,5409;9,7782;146,0733;0,0252;-0,1619;0,0991;88,8679;49,9882;35,9416;20;0,0262;0,9925;0,4171;328,5409;9,7782;146,0733;0,0262;-0,1861;0,1009;88,8679;49,9882;35,9416;21;0,0229;0,9379;0,2856;342,2766;13,7315;158,1747;0,0229;-0,0536;0,0548;61,4155;33,5081;5,2801;22;0,0348;0,9517;0,3276;353,1954;8,0174;148,0713;0,0348;-0,0935;0,0729;56,8732;31,1954;14,1224;23;0,0435;0,9553;0,3576;345,9704;17,4549;151,7667;0,0435;-0,1191;0,0872;70,6675;53,3540;28,3111;24;0,0488;0,9602;0,3763;340,3813;13,8792;152,7081;0,0488;-0,1381;0,0912;74,4802;38,0097;13,7452;25;0,0527;0,9666;0,3967;340,3813;13,8792;152,7081;0,0527;-0,1588;0,0969;74,4802;38,0097;13,7452
24,68361-0,0659;0,009;-0,2104;26,82;62,4;24,23;0;-0,0026;0,9626;0,3067;335,6676;356,9391;141,9680;-0,0026;-0,0782;0,0738;60,0000;0,0000;0,0000;1;0,0000;0,9310;0,2504;335,6676;356,9391;141,9680;0,0000;-0,0196;0,0460;60,0000;0,0000;0,0000;2;-0,0297;0,9722;0,2675;310,8787;311,5872;102,6720;-0,0297;-0,0579;0,0489;49,3700;293,4207;17,0323;3;-0,0490;0,9966;0,2815;315,3558;349,2065;84,3404;-0,0490;-0,0824;0,0573;44,2610;303,8924;15,1227;4;-0,0689;1,0202;0,3050;309,4456;355,4539;70,3253;-0,0689;-0,1058;0,0707;30,6686;288,5297;15,5208;5;-0,0893;1,0389;0,3206;309,4456;355,4539;70,3253;-0,0893;-0,1173;0,0779;30,6686;288,5297;15,5208;6;-0,0195;0,9632;0,2745;335,6676;356,9391;141,9680;-0,0195;-0,0560;0,0557;60,0000;0,0000;0,0000;7;-0,0234;0,9887;0,3282;345,9810;354,6029;138,9836;-0,0234;-0,1059;0,0874;77,2281;28,2075;30,0058;8;-0,0195;0,9978;0,3646;333,2272;7,1831;137,6078;-0,0195;-0,1427;0,0947;79,2542;144,4419;142,0878;9;-0,0168;1,0087;0,3860;329,6038;15,5565;135,5177;-0,0168;-0,1664;0,0911;70,8877;153,3440;148,7874;10;-0,0132;1,0192;0,4051;329,6038;15,5565;135,5177;-0,0132;-0,1876;0,0855;70,8877;153,3440;148,7874;11;-0,0034;0,9523;0,2777;335,6676;356,9391;141,9680;-0,0034;-0,0532;0,0564;60,0000;0,0000;0,0000;12;-0,0017;0,9730;0,3357;343,9803;1,3603;140,8273;-0,0017;-0,1032;0,0913;81,3750;40,0457;36,6585;13;0,0024;0,9848;0,3767;336,5941;8,3917;139,8001;0,0024;-0,1454;0,0962;83,9842;119,6296;114,4463;14;0,0049;0,9956;0,4015;335,9758;8,9540;144,6535;0,0049;-0,1726;0,0948;83,7467;123,6703;113,4151;15;0,0076;1,0047;0,4244;335,9758;8,9540;144,6535;0,0076;-0,1973;0,0944;83,7467;123,6703;113,4151;16;0,0149;0,9412;0,2846;335,6676;356,9391;141,9680;0,0149;-0,0526;0,0581;60,0000;0,0000;0,0000;17;0,0174;0,9623;0,3339;346,1553;0,7602;146,0445;0,0174;-0,0992;0,0844;70,9976;24,3455;15,7023;18;0,0226;0,9716;0,3715;334,9882;8,3350;147,6844;0,0226;-0,1359;0,0959;80,9893;40,3761;27,2130;19;0,0252;0,9827;0,3952;326,4722;9,8968;147,8248;0,0252;-0,1619;0,0991;88,8679;49,9882;35,9416;20;0,0262;0,9948;0,4160;326,4722;9,8968;147,8248;0,0262;-0,1861;0,1009;88,8679;49,9882;35,9416;21;0,0229;0,9389;0,2853;341,6756;13,1926;160,1577;0,0229;-0,0536;0,0548;61,4155;33,5081;5,2801;22;0,0348;0,9532;0,3272;352,8085;7,9600;149,9839;0,0348;-0,0935;0,0729;56,8732;31,1954;14,1224;23;0,0435;0,9570;0,3572;344,6448;17,4934;153,5830;0,0435;-0,1191;0,0872;70,6675;53,3540;28,3111;24;0,0488;0,9623;0,3758;338,8322;13,8732;154,6229;0,0488;-0,1381;0,0912;74,4802;38,0097;13,7452;25;0,0527;0,9693;0,3960;338,8322;13,8732;154,6229;0,0527;-0,1588;0,0969;74,4802;38,0097;13,7452
24,71169-0,0183;0,0281;-0,2793;26,29;67,18;31,59;0;-0,0026;0,9623;0,3064;335,9664;355,8043;144,8307;-0,0026;-0,0782;0,0738;60,0000;0,0000;0,0000;1;0,0000;0,9310;0,2501;335,9664;355,8043;144,8307;0,0000;-0,0196;0,0460;60,0000;0,0000;0,0000;2;-0,0297;0,9713;0,2672;312,9597;309,9554;104,9409;-0,0297;-0,0579;0,0489;49,3700;293,4207;17,0323;3;-0,0490;0,9950;0,2814;316,1447;348,3124;86,7052;-0,0490;-0,0824;0,0573;44,2610;303,8924;15,1227;4;-0,0689;1,0182;0,3051;310,1315;354,4830;72,8071;-0,0689;-0,1058;0,0707;30,6686;288,5297;15,5208;5;-0,0893;1,0367;0,3209;310,1315;354,4830;72,8071;-0,0893;-0,1173;0,0779;30,6686;288,5297;15,5208;6;-0,0195;0,9625;0,2742;335,9664;355,8043;144,8307;-0,0195;-0,0560;0,0557;60,0000;0,0000;0,0000;7;-0,0234;0,9876;0,3280;346,3298;354,1034;141,6219;-0,0234;-0,1059;0,0874;77,2281;28,2075;30,0058;8;-0,0195;0,9965;0,3644;332,4510;6,5432;140,2510;-0,0195;-0,1427;0,0947;79,2542;144,4419;142,0878;9;-0,0168;1,0077;0,3857;328,1533;15,1571;137,9002;-0,0168;-0,1664;0,0911;70,8877;153,3440;148,7874;10;-0,0132;1,0186;0,4045;328,1533;15,1571;137,9002;-0,0132;-0,1876;0,0855;70,8877;153,3440;148,7874;11;-0,0034;0,9521;0,2774;335,9664;355,8043;144,8307;-0,0034;-0,0532;0,0564;60,0000;0,0000;0,0000;12;-0,0017;0,9725;0,3354;343,5378;1,0736;143,4354;-0,0017;-0,1032;0,0913;81,3750;40,0457;36,6585;13;0,0024;0,9846;0,3763;335,4522;8,1036;142,3194;0,0024;-0,1454;0,0962;83,9842;119,6296;114,4463;14;0,0049;0,9960;0,4010;334,5812;8,8052;147,1295;0,0049;-0,1726;0,0948;83,7467;123,6703;113,4151;15;0,0076;1,0056;0,4237;334,5812;8,8052;147,1295;0,0076;-0,1973;0,0944;83,7467;123,6703;113,4151;16;0,0149;0,9417;0,2842;335,9664;355,8043;144,8307;0,0149;-0,0526;0,0581;60,0000;0,0000;0,0000;17;0,0174;0,9626;0,3336;346,1673;0,2292;148,7277;0,0174;-0,0992;0,0844;70,9976;24,3455;15,7023;18;0,0226;0,9719;0,3712;334,2670;7,4830;150,4430;0,0226;-0,1359;0,0959;80,9893;40,3761;27,2130;19;0,0252;0,9834;0,3948;325,4723;8,7126;150,7421;0,0252;-0,1619;0,0991;88,8679;49,9882;35,9416;20;0,0262;0,9958;0,4154;325,4723;8,7126;150,7421;0,0262;-0,1861;0,1009;88,8679;49,9882;35,9416;21;0,0229;0,9398;0,2849;341,2245;12,3616;162,8890;0,0229;-0,0536;0,0548;61,4155;33,5081;5,2801;22;0,0348;0,9544;0,3269;352,5790;7,7825;152,5872;0,0348;-0,0935;0,0729;56,8732;31,1954;14,1224;23;0,0435;0,9583;0,3569;343,7114;17,0743;156,1681;0,0435;-0,1191;0,0872;70,6675;53,3540;28,3111;24;0,0488;0,9640;0,3754;337,9069;13,2253;157,3385;0,0488;-0,1381;0,0912;74,4802;38,0097;13,7452;25;0,0527;0,9712;0,3956;337,9069;13,2253;157,3385;0,0527;-0,1588;0,0969;74,4802;38,0097;13,7452
24,73966-0,0129;0,0466;-0,3308;25,73;79,2;34,19;0;-0,0026;0,9627;0,3059;335,6535;354,4964;147,1192;-0,0026;-0,0782;0,0738;60,0000;0,0000;0,0000;1;0,0000;0,9310;0,2499;335,6535;354,4964;147,1192;0,0000;-0,0196;0,0460;60,0000;0,0000;0,0000;2;-0,0297;0,9708;0,2665;314,2571;307,8894;107,2980;-0,0297;-0,0579;0,0489;49,3700;293,4207;17,0323;3;-0,0490;0,9940;0,2804;316,1724;347,2212;88,6501;-0,0490;-0,0824;0,0573;44,2610;303,8924;15,1227;4;-0,0689;1,0172;0,3040;310,0406;353,2420;74,8616;-0,0689;-0,1058;0,0707;30,6686;288,5297;15,5208;5;-0,0893;1,0357;0,3198;310,0406;353,2420;74,8616;-0,0893;-0,1173;0,0779;30,6686;288,5297;15,5208;6;-0,0195;0,9622;0,2737;335,6535;354,4964;147,1192;-0,0195;-0,0560;0,0557;60,0000;0,0000;0,0000;7;-0,0234;0,9875;0,3272;345,1693;353,9877;143,5381;-0,0234;-0,1059;0,0874;77,2281;28,2075;30,0058;8;-0,0195;0,9972;0,3634;330,4705;6,4601;141,8329;-0,0195;-0,1427;0,0947;79,2542;144,4419;142,0878;9;-0,0168;1,0091;0,3843;325,9167;15,2056;139,1398;-0,0168;-0,1664;0,0911;70,8877;153,3440;148,7874;10;-0,0132;1,0207;0,4027;325,9167;15,2056;139,1398;-0,0132;-0,1876;0,0855;70,8877;153,3440;148,7874;11;-0,0034;0,9524;0,2770;335,6535;354,4964;147,1192;-0,0034;-0,0532;0,0564;60,0000;0,0000;0,0000;12;-0,0017;0,9730;0,3348;341,3855;1,2736;145,2017;-0,0017;-0,1032;0,0913;81,3750;40,0457;36,6585;13;0,0024;0,9866;0,3752;333,0349;8,2191;143,8574;0,0024;-0,1454;0,0962;83,9842;119,6296;114,4463;14;0,0049;0,9990;0,3994;332,0890;8,9493;148,6340;0,0049;-0,1726;0,0948;83,7467;123,6703;113,4151;15;0,0076;1,0097;0,4216;332,0890;8,9493;148,6340;0,0076;-0,1973;0,0944;83,7467;123,6703;113,4151;16;0,0149;0,9425;0,2840;335,6535;354,4964;147,1192;0,0149;-0,0526;0,0581;60,0000;0,0000;0,0000;17;0,0174;0,9638;0,3332;344,5690;359,9777;150,6748;0,0174;-0,0992;0,0844;70,9976;24,3455;15,7023;18;0,0226;0,9741;0,3705;332,3832;6,9229;152,2980;0,0226;-0,1359;0,0959;80,9893;40,3761;27,2130;19;0,0252;0,9863;0,3938;323,4945;7,8693;152,7155;0,0252;-0,1619;0,0991;88,8679;49,9882;35,9416;20;0,0262;0,9995;0,4140;323,4945;7,8693;152,7155;0,0262;-0,1861;0,1009;88,8679;49,9882;35,9416;21;0,0229;0,9409;0,2848;340,3251;11,3255;164,9116;0,0229;-0,0536;0,0548;61,4155;33,5081;5,2801;22;0,0348;0,9561;0,3267;351,7525;7,2690;154,5475;0,0348;-0,0935;0,0729;56,8732;31,1954;14,1224;23;0,0435;0,9605;0,3566;342,4903;16,3278;158,0265;0,0435;-0,1191;0,0872;70,6675;53,3540;28,3111;24;0,0488;0,9666;0,3751;336,7331;12,2761;159,3431;0,0488;-0,1381;0,0912;74,4802;38,0097;13,7452;25;0,0527;0,9742;0,3952;336,7331;12,2761;159,3431;0,0527;-0,1588;0,0969;74,4802;38,0097;13,7452
24,767-0,0464;0,0718;-0,3611;25,73;96,71;38,43;0;-0,0026;0,9621;0,3053;336,0273;350,9344;153,7240;-0,0026;1,0164;0,5171;347,0960;349,3096;339,5331;1;0,0130;0,9309;0,2496;336,0273;350,9344;153,7240;0,0130;1,0064;0,4544;347,0960;349,3096;339,5331;2;-0,0256;0,9684;0,2657;318,9067;303,4505;112,5147;-0,0256;1,0053;0,4852;353,3529;316,5160;68,0889;3;-0,0477;0,9897;0,2791;317,2821;343,3116;94,9056;-0,0477;1,0090;0,5085;345,3147;318,8083;58,0986;4;-0,0691;1,0124;0,3028;310,9387;350,3977;80,4570;-0,0691;1,0175;0,5330;346,7998;302,5605;71,8212;5;-0,0894;1,0306;0,3187;310,9387;350,3977;80,4570;-0,0894;1,0240;0,5450;346,7998;302,5605;71,8212;6;-0,0146;0,9605;0,2730;336,0273;350,9344;153,7240;-0,0146;1,0103;0,4872;347,0960;349,3096;339,5331;7;-0,0283;0,9850;0,3261;339,2000;356,1282;148,0789;-0,0283;1,0290;0,5410;354,4171;346,5968;343,5584;8;-0,0370;0,9984;0,3613;316,4035;15,2373;140,7315;-0,0370;1,0327;0,5775;3,8247;344,1577;340,5846;9;-0,0435;1,0151;0,3782;308,5269;32,3899;129,9585;-0,0435;1,0311;0,6007;5,3557;346,7717;338,9053;10;-0,0480;1,0319;0,3907;308,5269;32,3899;129,9585;-0,0480;1,0298;0,6224;5,3557;346,7717;338,9053;11;0,0015;0,9520;0,2766;336,0273;350,9344;153,7240;0,0015;1,0070;0,4887;347,0960;349,3096;339,5331;12;-0,0067;0,9722;0,3341;339,3036;359,3434;151,2246;-0,0067;1,0259;0,5454;2,9961;349,8130;338,0046;13;-0,0143;0,9873;0,3740;327,4124;7,4080;148,9620;-0,0143;1,0237;0,5873;16,1435;344,5061;335,7362;14;-0,0213;1,0021;0,3969;325,9144;8,3755;153,5979;-0,0213;1,0160;0,6127;19,4969;342,5700;329,7674;15;-0,0276;1,0150;0,4179;325,9144;8,3755;153,5979;-0,0276;1,0085;0,6355;19,4969;342,5700;329,7674;16;0,0179;0,9438;0,2838;336,0273;350,9344;153,7240;0,0179;1,0036;0,4921;347,0960;349,3096;339,5331;17;0,0103;0,9650;0,3328;343,3106;357,8501;156,8166;0,0103;1,0142;0,5441;4,0196;353,5135;332,3060;18;0,0059;0,9761;0,3699;328,4730;4,2900;158,4058;0,0059;1,0115;0,5825;23,2383;341,0388;324,8941;19;-0,0020;0,9899;0,3924;319,3042;4,1674;159,4122;-0,0020;1,0011;0,6055;31,4992;328,7706;318,0657;20;-0,0119;1,0045;0,4117;319,3042;4,1674;159,4122;-0,0119;0,9893;0,6242;31,4992;328,7706;318,0657;21;0,0240;0,9430;0,2847;338,9096;8,2862;171,1732;0,0240;0,9976;0,4939;357,7706;1,7196;313,7414;22;0,0253;0,9594;0,3266;349,5464;5,9603;160,5289;0,0253;0,9994;0,5392;12,9763;355,0486;322,4626;23;0,0228;0,9649;0,3565;338,8245;14,2761;163,8131;0,0228;0,9925;0,5689;37,4683;333,1604;305,5719;24;0,0155;0,9722;0,3747;333,4127;9,5086;165,6487;0,0155;0,9802;0,5832;38,2081;317,7455;296,2010;25;0,0044;0,9810;0,3945;333,4127;9,5086;165,6487;0,0044;0,9673;0,5968;38,2081;317,7455;296,2010
24,79519-0,0339;0,0916;-0,4009;26,55;108,44;43,34;0;0,0088;0,9603;0,3045;336,5682;347,2402;161,0345;0,0088;1,0165;0,5453;352,5934;352,7217;327,8204;1;0,0215;0,9296;0,2493;336,5682;347,2402;161,0345;0,0215;1,0118;0,4815;352,5934;352,7217;327,8204;2;-0,0163;0,9643;0,2646;324,1113;299,4895;117,6598;-0,0163;1,0138;0,5132;351,9299;319,3185;55,3718;3;-0,0371;0,9833;0,2775;318,3214;339,9437;101,2610;-0,0371;1,0183;0,5374;344,5989;323,3972;44,9752;4;-0,0564;1,0056;0,3011;311,6080;349,8026;84,9776;-0,0564;1,0273;0,5634;342,3013;306,5976;59,5870;5;-0,0752;1,0235;0,3173;311,6080;349,8026;84,9776;-0,0752;1,0357;0,5767;342,3013;306,5976;59,5870;6;-0,0045;0,9572;0,2720;336,5682;347,2402;161,0345;-0,0045;1,0165;0,5153;352,5934;352,7217;327,8204;7;-0,0139;0,9809;0,3247;334,1966;356,6053;153,5666;-0,0139;1,0304;0,5715;353,5393;349,3564;331,5568;8;-0,0208;0,9973;0,3586;303,3873;23,2185;138,3606;-0,0208;1,0346;0,6083;358,1199;347,5271;328,7037;9;-0,0260;1,0174;0,3708;294,1685;63,9525;104,1923;-0,0260;1,0354;0,6319;358,1606;351,0682;326,7119;10;-0,0286;1,0375;0,3758;294,1685;63,9525;104,1923;-0,0286;1,0368;0,6539;358,1606;351,0682;326,7119;11;0,0108;0,9504;0,2759;336,5682;347,2402;161,0345;0,0108;1,0102;0,5159;352,5934;352,7217;327,8204;12;0,0068;0,9701;0,3331;336,8451;356,8737;158,0658;0,0068;1,0229;0,5748;2,8255;353,6324;326,6297;13;0,0020;0,9869;0,3722;317,4651;7,4632;153,6544;0,0020;1,0208;0,6171;8,1946;350,4919;324,9996;14;-0,0024;1,0054;0,3922;313,0375;10,0810;157,2817;-0,0024;1,0168;0,6438;7,0719;351,5207;320,2839;15;-0,0051;1,0228;0,4098;313,0375;10,0810;157,2817;-0,0051;1,0145;0,6684;7,0719;351,5207;320,2839;16;0,0263;0,9441;0,2835;336,5682;347,2402;161,0345;0,0263;1,0034;0,5183;352,5934;352,7217;327,8204;17;0,0213;0,9652;0,3321;341,0761;355,6135;163,6416;0,0213;1,0086;0,5715;4,9751;357,5865;321,4177;18;0,0197;0,9777;0,3686;320,3838;1,7913;164,9538;0,0197;1,0052;0,6100;14,5303;348,9455;315,7830;19;0,0148;0,9946;0,3890;309,5840;0,6869;166,7556;0,0148;0,9986;0,6351;17,1742;341,0858;312,7579;20;0,0085;1,0122;0,4056;309,5840;0,6869;166,7556;0,0085;0,9923;0,6577;17,1742;341,0858;312,7579;21;0,0312;0,9444;0,2845;337,4090;4,9076;178,2253;0,0312;0,9963;0,5192;5,4101;2,7715;303,4997;22;0,0334;0,9618;0,3262;343,1089;5,1138;167,1955;0,0334;0,9920;0,5643;14,7750;358,6477;312,6606;23;0,0327;0,9707;0,3553;328,6740;13,0386;169,7534;0,0327;0,9842;0,5938;30,5993;342,8748;300,1645;24;0,0275;0,9812;0,3721;323,1947;7,1709;172,9462;0,0275;0,9739;0,6104;27,4665;335,9722;296,9068;25;0,0204;0,9933;0,3902;323,1947;7,1709;172,9462;0,0204;0,9645;0,6288;27,4665;335,9722;296,9068
24,82258-0,0466;0,2109;-0,4561;21,84;110,54;39,68;0;0,0278;0,9573;0,3045;336,4819;346,7485;161,8412;0,0278;1,0122;0,6122;354,7289;351,6042;316,9726;1;0,0425;0,9266;0,2495;336,4819;346,7485;161,8412;0,0425;1,0091;0,5486;354,7289;351,6042;316,9726;2;0,0042;0,9614;0,2647;323,6382;299,7474;117,1275;0,0042;1,0160;0,5791;349,7275;316,9375;45,6333;3;-0,0175;0,9806;0,2776;317,9164;343,0752;98,5241;-0,0175;1,0218;0,6023;343,8935;322,7910;34,7284;4;-0,0370;1,0031;0,3014;312,1943;358,7787;78,1802;-0,0370;1,0311;0,6280;338,1128;305,5870;50,1932;5;-0,0553;1,0209;0,3182;312,1943;358,7787;78,1802;-0,0553;1,0413;0,6406;338,1128;305,5870;50,1932;6;0,0162;0,9542;0,2721;336,4819;346,7485;161,8412;0,0162;1,0164;0,5818;354,7289;351,6042;316,9726;7;0,0069;0,9777;0,3246;332,2184;357,9409;153,4965;0,0069;1,0284;0,6384;353,0510;347,4374;320,6100;8;-0,0012;0,9953;0,3579;296,7928;37,1890;126,8020;-0,0012;1,0330;0,6749;355,7936;346,0512;317,7684;9;-0,0070;1,0168;0,3666;294,4128;96,2520;74,6773;-0,0070;1,0348;0,6983;356,2940;349,7359;315,6387;10;-0,0101;1,0370;0,3666;294,4128;96,2520;74,6773;-0,0101;1,0367;0,7202;356,2940;349,7359;315,6387;11;0,0300;0,9475;0,2761;336,4819;346,7485;161,8412;0,0300;1,0074;0,5825;354,7289;351,6042;316,9726;12;0,0257;0,9672;0,3330;331,4767;358,6357;157,8313;0,0257;1,0171;0,6419;3,1063;352,4149;315,9338;13;0,0201;0,9876;0,3705;306,6571;15,4579;147,9716;0,0201;1,0148;0,6841;5,3777;350,8167;314,5098;14;0,0157;1,0096;0,3862;298,6992;24,1654;146,5276;0,0157;1,0122;0,7110;3,6088;353,0501;309,9625;15;0,0138;1,0308;0,3981;298,6992;24,1654;146,5276;0,0138;1,0112;0,7357;3,6088;353,0501;309,9625;16;0,0440;0,9413;0,2836;336,4819;346,7485;161,8412;0,0440;0,9978;0,5849;354,7289;351,6042;316,9726;17;0,0376;0,9625;0,3321;335,1425;356,8993;163,7137;0,0376;1,0006;0,6381;4,8877;357,6175;311,0768;18;0,0360;0,9788;0,3672;308,1925;6,5432;162,1132;0,0360;0,9973;0,6767;7,7744;354,3351;306,7662;19;0,0334;0,9995;0,3835;294,1002;8,5427;161,5688;0,0334;0,9938;0,7028;7,3298;349,1674;305,3710;20;0,0303;1,0209;0,3947;294,1002;8,5427;161,5688;0,0303;0,9914;0,7267;7,3298;349,1674;305,3710;21;0,0474;0,9417;0,2847;337,1019;4,4526;178,9613;0,0474;0,9898;0,5855;9,1715;359,1269;293,0869;22;0,0468;0,9594;0,3263;338,2230;3,6019;168,6368;0,0468;0,9826;0,6303;14,0635;1,5294;304,1876;23;0,0475;0,9707;0,3546;317,1311;13,0057;169,9337;0,0475;0,9752;0,6599;23,3031;354,1440;296,4190;24;0,0457;0,9844;0,3691;308,4395;6,3830;174,6995;0,0457;0,9672;0,6783;18,1975;351,5871;295,5953;25;0,0436;1,0008;0,3835;308,4395;6,3830;174,6995;0,0436;0,9611;0,6992;18,1975;351,5871;295,5953
24,85068-0,0383;0,241;-0,4548;19,53;99,8;34,34;0;0,0485;0,9555;0,3054;336,5050;346,6696;161,0153;0,0485;1,0096;0,6329;345,1934;348,9522;311,8248;1;0,0660;0,9248;0,2504;336,5050;346,6696;161,0153;0,0660;0,9952;0,5716;345,1934;348,9522;311,8248;2;0,0273;0,9599;0,2655;323,0293;299,7699;116,4008;0,0273;1,0109;0,5980;341,9848;310,1464;48,3535;3;0,0038;0,9794;0,2783;317,8641;343,5484;97,2999;0,0038;1,0209;0,6179;337,7904;317,4942;36,2515;4;-0,0172;1,0019;0,3022;312,5459;0,3661;76,2088;-0,0172;1,0336;0,6408;332,6700;299,2151;53,7938;5;-0,0359;1,0196;0,3190;312,5459;0,3661;76,2088;-0,0359;1,0458;0,6507;332,6700;299,2151;53,7938;6;0,0391;0,9526;0,2729;336,5050;346,6696;161,0153;0,0391;1,0104;0,6015;345,1934;348,9522;311,8248;7;0,0283;0,9761;0,3253;332,3766;358,0110;152,6246;0,0283;1,0318;0,6550;343,2193;344,7903;316,1557;8;0,0188;0,9936;0,3587;297,9269;36,2987;127,0656;0,0188;1,0427;0,6898;345,8805;343,1171;313,6250;9;0,0120;1,0149;0,3678;294,6059;89,6857;80,5074;0,0120;1,0486;0,7122;346,7140;346,7919;310,8785;10;0,0080;1,0351;0,3689;294,6059;89,6857;80,5074;0,0080;1,0541;0,7334;346,7140;346,7919;310,8785;11;0,0516;0,9457;0,2770;336,5050;346,6696;161,0153;0,0516;1,0001;0,6045;345,1934;348,9522;311,8248;12;0,0454;0,9654;0,3339;330,5165;359,0756;156,7606;0,0454;1,0191;0,6614;353,7461;349,0196;310,7844;13;0,0373;0,9864;0,3710;306,0306;16,9713;145,9893;0,0373;1,0238;0,7030;355,8917;347,1996;309,6428;14;0,0312;1,0085;0,3864;298,2380;26,4451;143,8535;0,0312;1,0258;0,7296;354,3419;349,5589;304,7168;15;0,0278;1,0299;0,3980;298,2380;26,4451;143,8535;0,0278;1,0286;0,7541;354,3419;349,5589;304,7168;16;0,0642;0,9393;0,2846;336,5050;346,6696;161,0153;0,0642;0,9895;0,6093;345,1934;348,9522;311,8248;17;0,0554;0,9604;0,3331;334,5360;356,7747;162,9082;0,0554;1,0011;0,6609;356,0234;354,1996;305,0995;18;0,0515;0,9770;0,3680;307,6943;7,1473;160,7629;0,0515;1,0038;0,6994;358,3018;351,1049;301,3174;19;0,0474;0,9979;0,3841;293,5276;10,1076;159,3810;0,0474;1,0046;0,7254;357,4060;346,0451;300,7919;20;0,0431;1,0195;0,3950;293,5276;10,1076;159,3810;0,0431;1,0062;0,7492;357,4060;346,0451;300,7919;21;0,0667;0,9396;0,2857;337,3541;4,3443;178,1863;0,0667;0,9814;0,6112;0,3035;355,0610;286,9022;22;0,0628;0,9570;0,3275;337,9991;0,8332;168,9398;0,0628;0,9812;0,6564;5,0790;358,7897;297,8857;23;0,0621;0,9685;0,3558;316,7287;10,1572;170,2477;0,0621;0,9785;0,6868;13,1370;351,9327;291,5089;24;0,0594;0,9823;0,3702;307,7018;3,4510;175,1200;0,0594;0,9739;0,7063;7,8315;349,9901;291,2380;25;0,0566;0,9988;0,3845;307,7018;3,4510;175,1200;0,0566;0,9716;0,7278;7,8315;349,9901;291,2380
24,878530,0667;0,2896;-0,5352;15,85;81,41;16,1;0;0,0620;0,9546;0,3056;336,5125;346,4573;159,1383;0,0620;1,0083;0,6389;340,1243;348,5431;307,9575;1;0,0797;0,9238;0,2505;336,5125;346,4573;159,1383;0,0797;0,9881;0,5794;340,1243;348,5431;307,9575;2;0,0418;0,9597;0,2654;321,7526;299,7243;114,8938;0,0418;1,0087;0,6034;337,9329;306,3334;49,8168;3;0,0177;0,9797;0,2780;317,7696;344,3033;94,8441;0,0177;1,0208;0,6211;335,1398;315,0919;36,7486;4;-0,0038;1,0023;0,3019;313,2322;2,5764;72,8052;-0,0038;1,0349;0,6427;330,2465;296,2279;55,2971;5;-0,0225;1,0198;0,3190;313,2322;2,5764;72,8052;-0,0225;1,0480;0,6514;330,2465;296,2279;55,2971;6;0,0535;0,9521;0,2729;336,5125;346,4573;159,1383;0,0535;1,0075;0,6072;340,1243;348,5431;307,9575;7;0,0431;0,9757;0,3252;332,5421;358,0953;150,6433;0,0431;1,0336;0,6587;337,9824;344,4097;312,6400;8;0,0338;0,9931;0,3586;299,5615;36,6174;125,4457;0,0338;1,0478;0,6923;340,5985;342,4504;310,3560;9;0,0269;1,0141;0,3682;296,0850;83,9338;85,0634;0,0269;1,0558;0,7140;341,7185;346,0616;307,3131;10;0,0228;1,0339;0,3703;296,0850;83,9338;85,0634;0,0228;1,0631;0,7346;341,7185;346,0616;307,3131;11;0,0651;0,9447;0,2772;336,5125;346,4573;159,1383;0,0651;0,9965;0,6113;340,1243;348,5431;307,9575;12;0,0590;0,9644;0,3340;329,5386;359,6407;154,5208;0,0590;1,0202;0,6665;348,8518;348,0234;307,0619;13;0,0503;0,9860;0,3707;305,7596;19,3552;142,3478;0,0503;1,0284;0,7074;350,9136;345,9988;306,1113;14;0,0438;1,0082;0,3858;298,3384;29,8797;139,3123;0,0438;1,0328;0,7336;349,5296;348,4568;300,9661;15;0,0400;1,0296;0,3971;298,3384;29,8797;139,3123;0,0400;1,0376;0,7577;349,5296;348,4568;300,9661;16;0,0766;0,9378;0,2850;336,5125;346,4573;159,1383;0,0766;0,9853;0,6173;340,1243;348,5431;307,9575;17;0,0675;0,9588;0,3335;333,7699;356,2632;161,1528;0,0675;1,0014;0,6676;351,6299;353,3619;300,9257;18;0,0631;0,9759;0,3682;307,2242;8,1005;157,9606;0,0631;1,0070;0,7057;353,6612;350,1370;297,4046;19;0,0586;0,9970;0,3840;293,0962;12,9406;154,9328;0,0586;1,0100;0,7316;352,4260;345,1404;297,2966;20;0,0540;1,0186;0,3948;293,0962;12,9406;154,9328;0,0540;1,0136;0,7551;352,4260;345,1404;297,2966;21;0,0784;0,9378;0,2863;337,8828;4,0584;176,4146;0,0784;0,9772;0,6198;355,6193;353,6462;282,7307;22;0,0734;0,9549;0,3282;338,0829;358,4973;167,9730;0,0734;0,9807;0,6648;0,7599;357,7485;293,4859;23;0,0722;0,9663;0,3565;316,8753;8,2982;169,0432;0,0722;0,9803;0,6953;8,2113;350,6958;287,6729;24;0,0689;0,9801;0,3711;307,5133;1,9595;173,6439;0,0689;0,9774;0,7150;2,7733;349,1892;287,6113;25;0,0659;0,9967;0,3853;307,5133;1,9595;173,6439;0,0659;0,9769;0,7366;2,7733;349,1892;287,6113
24,906520,0996;0,3086;-0,5825;14,32;80,02;-0,08;0;0,0561;0,9548;0,3051;336,2316;346,5519;157,1438;0,0561;1,0169;0,6177;337,2992;351,1454;303,8523;1;0,0710;0,9238;0,2502;336,2316;346,5519;157,1438;0,0710;0,9931;0,5588;337,2992;351,1454;303,8523;2;0,0356;0,9605;0,2648;320,3539;299,8636;113,5928;0,0356;1,0181;0,5821;332,3148;305,6654;48,8811;3;0,0123;0,9811;0,2772;317,4938;345,2023;92,5207;0,0123;1,0331;0,5988;330,4012;315,4694;34,5966;4;-0,0081;1,0038;0,3011;313,5252;3,7780;70,2721;-0,0081;1,0497;0,6196;325,1542;295,7938;54,9971;5;-0,0258;1,0213;0,3182;313,5252;3,7780;70,2721;-0,0258;1,0646;0,6276;325,1542;295,7938;54,9971;6;0,0470;0,9527;0,2724;336,2316;346,5519;157,1438;0,0470;1,0158;0,5861;337,2992;351,1454;303,8523;7;0,0396;0,9767;0,3245;331,8316;358,8633;148,2914;0,0396;1,0441;0,6370;335,8900;347,5274;308,5571;8;0,0321;0,9945;0,3578;301,7812;35,5975;124,9830;0,0321;1,0595;0,6706;339,1057;344,2852;306,8153;9;0,0260;1,0150;0,3681;297,7917;76,9789;90,6526;0,0260;1,0682;0,6923;341,0544;346,8716;304,0520;10;0,0222;1,0345;0,3715;297,7917;76,9789;90,6526;0,0222;1,0757;0,7129;341,0544;346,8716;304,0520;11;0,0577;0,9449;0,2768;336,2316;346,5519;157,1438;0,0577;1,0040;0,5904;337,2992;351,1454;303,8523;12;0,0545;0,9648;0,3335;329,1894;359,8979;152,3939;0,0545;1,0298;0,6450;347,6835;347,8102;303,6740;13;0,0457;0,9867;0,3701;306,7338;20,1152;139,9789;0,0457;1,0389;0,6857;350,4644;344,3409;303,0156;14;0,0384;1,0086;0,3855;299,6233;30,7626;136,9441;0,0384;1,0435;0,7117;349,2640;346,7777;297,8485;15;0,0340;1,0297;0,3971;299,6233;30,7626;136,9441;0,0340;1,0483;0,7357;349,2640;346,7777;297,8485;16;0,0685;0,9374;0,2848;336,2316;346,5519;157,1438;0,0685;0,9920;0,5968;337,2992;351,1454;303,8523;17;0,0617;0,9586;0,3332;333,5607;356,0272;159,2646;0,0617;1,0105;0,6467;349,7390;354,2900;297,0048;18;0,0579;0,9759;0,3678;307,5051;9,1652;155,2281;0,0579;1,0174;0,6846;351,9150;350,0779;293,7197;19;0,0534;0,9968;0,3837;293,5266;15,6158;150,8182;0,0534;1,0211;0,7104;350,3810;345,1214;293,7681;20;0,0488;1,0184;0,3945;293,5266;15,6158;150,8182;0,0488;1,0256;0,7338;350,3810;345,1214;293,7681;21;0,0697;0,9372;0,2862;338,1667;4,0908;174,4447;0,0697;0,9839;0,5997;353,1072;355,1559;278,6738;22;0,0659;0,9541;0,3282;338,9212;357,7650;166,2477;0,0659;0,9893;0,6446;358,5584;358,8191;289,2849;23;0,0653;0,9650;0,3566;317,9715;8,2534;167,0959;0,0653;0,9901;0,6751;5,5794;350,9221;283,7076;24;0,0621;0,9786;0,3715;308,3467;2,5974;171,1242;0,0621;0,9881;0,6949;0,0599;349,7628;283,7334;25;0,0593;0,9949;0,3859;308,3467;2,5974;171,1242;0,0593;0,9886;0,7165;0,0599;349,7628;283,7334
24,93414-0,0107;0,2615;-0,6125;13,98;67,64;-30,21;0;0,0485;0,9562;0,3050;335,1667;348,0597;155,1472;0,0485;1,0222;0,5982;337,1493;355,2110;299,5279;1;0,0593;0,9240;0,2503;335,1667;348,0597;155,1472;0,0593;0,9978;0,5387;337,1493;355,2110;299,5279;2;0,0267;0,9618;0,2648;318,3886;300,9398;113,0203;0,0267;1,0251;0,5635;329,0104;309,6501;45,6447;3;0,0054;0,9833;0,2772;316,4398;347,4007;90,2532;0,0054;1,0418;0,5811;327,9605;320,1077;30,5908;4;-0,0129;1,0064;0,3010;313,0236;6,3187;67,5797;-0,0129;1,0596;0,6030;321,8183;300,3727;51,8524;5;-0,0291;1,0241;0,3178;313,0236;6,3187;67,5797;-0,0291;1,0756;0,6120;321,8183;300,3727;51,8524;6;0,0381;0,9539;0,2724;335,1667;348,0597;155,1472;0,0381;1,0220;0,5670;337,1493;355,2110;299,5279;7;0,0347;0,9790;0,3244;330,4217;1,0819;145,7535;0,0347;1,0503;0,6183;338,2747;349,6246;305,1163;8;0,0284;0,9976;0,3572;302,8080;38,4431;122,0184;0,0284;1,0643;0,6527;342,2919;344,6615;303,8000;9;0,0223;1,0179;0,3675;299,6048;76,7727;90,8790;0,0223;1,0716;0,6749;344,5876;346,7073;301,3328;10;0,0184;1,0371;0,3710;299,6048;76,7727;90,8790;0,0184;1,0778;0,6959;344,5876;346,7073;301,3328;11;0,0481;0,9457;0,2767;335,1667;348,0597;155,1472;0,0481;1,0094;0,5708;337,1493;355,2110;299,5279;12;0,0490;0,9667;0,3333;328,4462;1,6713;150,0787;0,0490;1,0350;0,6256;348,4520;349,1819;300,0080;13;0,0411;0,9890;0,3696;308,0075;21,6079;137,9615;0,0411;1,0435;0,6667;351,7016;344,3049;299,5238;14;0,0338;1,0106;0,3853;301,2001;32,1141;135,1786;0,0338;1,0475;0,6928;350,7164;346,6501;294,4111;15;0,0293;1,0313;0,3973;301,2001;32,1141;135,1786;0,0293;1,0517;0,7168;350,7164;346,6501;294,4111;16;0,0583;0,9378;0,2846;335,1667;348,0597;155,1472;0,0583;0,9966;0,5768;337,1493;355,2110;299,5279;17;0,0548;0,9598;0,3329;332,7758;357,5940;157,1031;0,0548;1,0152;0,6269;350,5057;355,6987;293,2576;18;0,0519;0,9775;0,3673;308,3774;11,4533;152,5945;0,0519;1,0216;0,6651;352,7870;350,2982;290,0576;19;0,0475;0,9982;0,3834;294,6147;19,1509;147,1697;0,0475;1,0249;0,6909;350,9685;345,3819;290,0338;20;0,0431;1,0196;0,3944;294,6147;19,1509;147,1697;0,0431;1,0290;0,7143;350,9685;345,3819;290,0338;21;0,0590;0,9372;0,2859;337,7000;5,6104;172,2261;0,0590;0,9884;0,5795;353,1950;358,0260;274,6562;22;0,0574;0,9545;0,3277;339,6742;358,7974;164,1921;0,0574;0,9938;0,6245;358,6749;359,6555;285,2489;23;0,0573;0,9651;0,3563;319,1472;10,0764;164,7795;0,0573;0,9945;0,6551;5,3275;350,0747;279,5139;24;0,0538;0,9783;0,3713;309,3224;5,1801;168,1878;0,0538;0,9926;0,6749;359,7515;349,2433;279,5602;25;0,0509;0,9944;0,3860;309,3224;5,1801;168,1878;0,0509;0,9932;0,6965;359,7515;349,2433;279,5602
24,96186-0,0586;0,2039;-0,6208;17,06;53,2;-34,43;0;0,0465;0,9572;0,3049;334,3666;349,2374;153,8498;0,0465;1,0237;0,5897;337,4335;358,3356;294,8682;1;0,0541;0,9243;0,2504;334,3666;349,2374;153,8498;0,0541;0,9992;0,5298;337,4335;358,3356;294,8682;2;0,0242;0,9627;0,2648;317,0415;301,7131;112,8035;0,0242;1,0286;0,5555;325,8197;313,3275;41,5900;3;0,0048;0,9848;0,2773;315,6341;348,9115;88,8622;0,0048;1,0468;0,5739;326,1349;324,5898;25,6968;4;-0,0114;1,0082;0,3008;312,4374;7,6646;66,1407;-0,0114;1,0655;0,5966;319,1135;305,4715;47,1975;5;-0,0260;1,0261;0,3175;312,4374;7,6646;66,1407;-0,0260;1,0824;0,6066;319,1135;305,4715;47,1975;6;0,0354;0,9548;0,2724;334,3666;349,2374;153,8498;0,0354;1,0246;0,5588;337,4335;358,3356;294,8682;7;0,0353;0,9807;0,3244;329,2128;2,6251;144,0884;0,0353;1,0526;0,6104;339,8852;351,1382;301,0576;8;0,0298;1,0000;0,3568;303,3867;40,0128;120,2721;0,0298;1,0656;0,6453;344,1076;344,9350;299,9795;9;0,0238;1,0202;0,3669;300,6576;76,0462;91,4101;0,0238;1,0722;0,6678;346,7175;346,4288;297,7172;10;0,0198;1,0391;0,3707;300,6576;76,0462;91,4101;0,0198;1,0775;0,6890;346,7175;346,4288;297,7172;11;0,0445;0,9463;0,2767;334,3666;349,2374;153,8498;0,0445;1,0113;0,5622;337,4335;358,3356;294,8682;12;0,0485;0,9681;0,3332;327,8281;3,0251;148,5433;0,0485;1,0361;0,6172;349,0181;349,9518;295,8954;13;0,0412;0,9908;0,3693;308,5948;22,8886;136,4903;0,0412;1,0443;0,6585;352,2343;344,1794;295,5065;14;0,0338;1,0122;0,3850;302,1183;33,1824;133,9373;0,0338;1,0480;0,6846;351,4819;346,3988;290,4187;15;0,0292;1,0327;0,3971;302,1183;33,1824;133,9373;0,0292;1,0518;0,7087;351,4819;346,3988;290,4187;16;0,0538;0,9381;0,2845;334,3666;349,2374;153,8498;0,0538;0,9977;0,5678;337,4335;358,3356;294,8682;17;0,0529;0,9608;0,3327;332,1652;358,7784;155,6956;0,0529;1,0160;0,6183;351,1808;356,4890;289,1085;18;0,0506;0,9788;0,3670;308,9213;12,9698;150,9573;0,0506;1,0219;0,6565;353,2011;350,4721;285,9293;19;0,0462;0,9994;0,3831;295,3321;21,3425;145,0000;0,0462;1,0250;0,6823;351,0591;345,6192;285,8713;20;0,0419;1,0206;0,3942;295,3321;21,3425;145,0000;0,0419;1,0290;0,7058;351,0591;345,6192;285,8713;21;0,0540;0,9374;0,2857;337,2911;6,7985;170,7536;0,0540;0,9894;0,5705;353,6413;359,8455;270,3432;22;0,0539;0,9549;0,3273;340,0838;359,6328;162,8465;0,0539;0,9945;0,6156;358,3404;359,7007;280,9396;23;0,0537;0,9653;0,3560;319,8984;11,3990;163,2786;0,0537;0,9953;0,6461;4,3239;348,9980;275,2325;24;0,0499;0,9783;0,3711;309,9716;6,9777;166,3073;0,0499;0,9938;0,6659;358,7100;348,4944;275,3026;25;0,0467;0,9943;0,3859;309,9716;6,9777;166,3073;0,0467;0,9947;0,6875;358,7100;348,4944;275,3026
24,98996-0,012;0,1587;-0,6401;20,68;40,29;-33,23;0;0,0454;0,9582;0,3047;334,3632;349,9570;153,5010;0,0454;1,0209;0,5891;338,3232;0,3823;292,8217;1;0,0509;0,9253;0,2500;334,3632;349,9570;153,5010;0,0509;0,9971;0,5286;338,3232;0,3823;292,8217;2;0,0225;0,9639;0,2647;316,8661;302,3984;112,6239;0,0225;1,0270;0,5555;324,2975;317,3201;38,3174;3;0,0047;0,9860;0,2774;315,6055;349,3188;88,8332;0,0047;1,0459;0,5748;325,9529;329,0952;21,9887;4;-0,0096;1,0094;0,3009;312,3711;7,9296;66,2019;-0,0096;1,0647;0,5987;318,2490;310,8099;43,1008;5;-0,0229;1,0274;0,3176;312,3711;7,9296;66,2019;-0,0229;1,0819;0,6099;318,2490;310,8099;43,1008;6;0,0336;0,9559;0,2723;334,3632;349,9570;153,5010;0,0336;1,0226;0,5584;338,3232;0,3823;292,8217;7;0,0356;0,9819;0,3244;328,9053;3,4407;143,6638;0,0356;1,0498;0,6105;342,1749;350,6948;299,7794;8;0,0298;1,0013;0,3566;303,7516;40,1193;120,4194;0,0298;1,0613;0,6459;346,3690;344,2397;298,5323;9;0,0234;1,0214;0,3669;300,9267;74,8190;92,8141;0,0234;1,0670;0,6685;349,0591;345,5596;296,3650;10;0,0190;1,0403;0,3709;300,9267;74,8190;92,8141;0,0190;1,0714;0,6898;349,0591;345,5596;296,3650;11;0,0424;0,9473;0,2764;334,3632;349,9570;153,5010;0,0424;1,0090;0,5615;338,3232;0,3823;292,8217;12;0,0485;0,9692;0,3331;327,7780;3,7348;148,1926;0,0485;1,0328;0,6168;349,8667;351,0649;293,9497;13;0,0419;0,9919;0,3691;308,8951;23,4046;136,3096;0,0419;1,0403;0,6583;352,9201;345,1133;293,5107;14;0,0349;1,0132;0,3848;302,5419;33,4402;133,9898;0,0349;1,0436;0,6845;352,2926;347,2077;288,4527;15;0,0306;1,0336;0,3970;302,5419;33,4402;133,9898;0,0306;1,0470;0,7087;352,2926;347,2077;288,4527;16;0,0514;0,9391;0,2841;334,3632;349,9570;153,5010;0,0514;0,9949;0,5667;338,3232;0,3823;292,8217;17;0,0522;0,9617;0,3323;332,1967;359,4579;155,3667;0,0522;1,0124;0,6174;351,9590;357,9346;287,1824;18;0,0508;0,9798;0,3666;309,3645;13,5312;150,7478;0,0508;1,0179;0,6557;353,8106;351,7139;283,9523;19;0,0470;1,0002;0,3829;295,8268;21,8203;144,8967;0,0470;1,0207;0,6817;351,5245;346,8514;283,8459;20;0,0432;1,0213;0,3941;295,8268;21,8203;144,8967;0,0432;1,0244;0,7053;351,5245;346,8514;283,8459;21;0,0514;0,9383;0,2852;337,3827;7,4929;170,4276;0,0514;0,9866;0,5692;354,5711;1,3151;268,4568;22;0,0524;0,9558;0,3267;340,4597;0,4328;162,4428;0,0524;0,9909;0,6144;358,8730;0,8834;279,0590;23;0,0529;0,9660;0,3555;320,4734;12,2576;162,9211;0,0529;0,9915;0,6449;4,5104;349,7092;273,2460;24;0,0493;0,9788;0,3707;310,5605;7,9682;165,8250;0,0493;0,9900;0,6647;358,8873;349,3157;273,3181;25;0,0464;0,9946;0,3856;310,5605;7,9682;165,8250;0,0464;0,9907;0,6863;358,8873;349,3157;273,3181
25,017950,1489;0,0701;-0,7339;27,53;46,92;-41,4;0;0,0439;0,9591;0,3042;334,2410;351,3557;151,9298;0,0439;1,0171;0,5915;340,2324;1,1323;294,6036;1;0,0485;0,9261;0,2493;334,2410;351,3557;151,9298;0,0485;0,9955;0,5301;340,2324;1,1323;294,6036;2;0,0200;0,9651;0,2644;316,0646;303,5117;112,0128;0,0200;1,0237;0,5587;325,5302;320,8050;36,9073;3;0,0032;0,9875;0,2772;315,3682;350,2570;88,0584;0,0032;1,0420;0,5793;327,7706;332,5195;20,8704;4;-0,0099;1,0111;0,3008;312,3085;8,9350;65,3442;-0,0099;1,0599;0,6045;320,3000;315,5768;40,6652;5;-0,0227;1,0290;0,3173;312,3085;8,9350;65,3442;-0,0227;1,0764;0,6173;320,3000;315,5768;40,6652;6;0,0313;0,9570;0,2718;334,2410;351,3557;151,9298;0,0313;1,0195;0,5612;340,2324;1,1323;294,6036;7;0,0338;0,9832;0,3242;329,2943;4,6794;142,1848;0,0338;1,0450;0,6140;344,7280;351,2510;301,2798;8;0,0283;1,0025;0,3565;305,5708;39,4978;120,8712;0,0283;1,0549;0,6500;349,1030;344,9073;299,7183;9;0,0221;1,0221;0,3674;302,3110;72,2295;95,4516;0,0221;1,0595;0,6729;351,7990;346,2074;297,6158;10;0,0179;1,0407;0,3720;302,3110;72,2295;95,4516;0,0179;1,0628;0,6945;351,7990;346,2074;297,6158;11;0,0405;0,9481;0,2757;334,2410;351,3557;151,9298;0,0405;1,0060;0,5636;340,2324;1,1323;294,6036;12;0,0473;0,9701;0,3326;327,9947;5,2571;146,5669;0,0473;1,0281;0,6194;352,0819;352,1545;295,3163;13;0,0415;0,9927;0,3687;309,8730;25,0746;134,7506;0,0415;1,0340;0,6613;355,3026;346,2138;294,6384;14;0,0350;1,0138;0,3846;303,7275;35,0388;132,5937;0,0350;1,0363;0,6878;354,6712;348,1774;289,6672;15;0,0311;1,0338;0,3969;303,7275;35,0388;132,5937;0,0311;1,0387;0,7122;354,6712;348,1774;289,6672;16;0,0500;0,9395;0,2833;334,2410;351,3557;151,9298;0,0500;0,9921;0,5680;340,2324;1,1323;294,6036;17;0,0516;0,9622;0,3316;332,3978;0,8794;153,7864;0,0516;1,0079;0,6193;353,9210;358,9984;288,8026;18;0,0509;0,9802;0,3660;310,1414;15,5741;148,8645;0,0509;1,0120;0,6578;356,0342;352,4879;285,3623;19;0,0475;1,0003;0,3824;296,7950;24,5558;142,5000;0,0475;1,0139;0,6839;353,8878;347,4891;285,0691;20;0,0439;1,0213;0,3938;296,7950;24,5558;142,5000;0,0439;1,0166;0,7077;353,8878;347,4891;285,0691;21;0,0503;0,9386;0,2843;337,6915;8,7837;168,9267;0,0503;0,9837;0,5703;356,4456;2,5618;270,1677;22;0,0523;0,9558;0,3257;341,6493;2,3920;160,5532;0,0523;0,9866;0,6155;0,6785;2,1825;280,7491;23;0,0535;0,9654;0,3547;322,1065;14,7644;161,0214;0,0535;0,9862;0,6460;6,6412;350,7160;274,4945;24;0,0503;0,9778;0,3701;312,1106;11,0873;163,4205;0,0503;0,9839;0,6658;1,0342;350,1208;274,5386;25;0,0477;0,9932;0,3853;312,1106;11,0873;163,4205;0,0477;0,9838;0,6875;1,0342;350,1208;274,5386
25,045410,2153;-0,0063;-0,7871;21,45;74,96;-49,79;0;0,0443;0,9604;0,3030;333,6133;352,9553;150,7760;0,0443;1,0097;0,5957;343,1582;1,5123;296,1794;1;0,0485;0,9268;0,2483;333,6133;352,9553;150,7760;0,0485;0,9913;0,5334;343,1582;1,5123;296,1794;2;0,0200;0,9660;0,2633;315,6644;303,7953;113,1077;0,0200;1,0178;0,5633;326,5700;322,8748;34,7006;3;0,0038;0,9885;0,2761;314,5035;349,8424;89,3289;0,0038;1,0356;0,5848;329,2306;334,3589;19,0017;4;-0,0087;1,0125;0,2993;311,1692;8,6712;66,2768;-0,0087;1,0528;0,6108;321,5712;318,3562;37,9147;5;-0,0210;1,0308;0,3156;311,1692;8,6712;66,2768;-0,0210;1,0689;0,6245;321,5712;318,3562;37,9147;6;0,0313;0,9580;0,2708;333,6133;352,9553;150,7760;0,0313;1,0135;0,5657;343,1582;1,5123;296,1794;7;0,0339;0,9851;0,3232;330,6990;4,6530;141,8116;0,0339;1,0360;0,6199;347,9097;351,9844;302,2539;8;0,0288;1,0035;0,3560;309,3259;32,7856;126,3207;0,0288;1,0439;0,6564;352,5449;345,4714;300,3596;9;0,0228;1,0222;0,3688;304,2065;59,8793;106,4181;0,0228;1,0470;0,6796;355,3609;346,5410;298,3587;10;0,0186;1,0403;0,3761;304,2065;59,8793;106,4181;0,0186;1,0490;0,7014;355,3609;346,5410;298,3587;11;0,0408;0,9490;0,2745;333,6133;352,9553;150,7760;0,0408;1,0001;0,5672;343,1582;1,5123;296,1794;12;0,0479;0,9717;0,3314;327,9052;6,8026;145,3420;0,0479;1,0193;0,6243;355,3117;352,8485;296,3475;13;0,0426;0,9944;0,3673;311,7024;24,7173;135,0338;0,0426;1,0227;0,6665;358,9731;346,2399;295,3407;14;0,0361;1,0149;0,3839;305,6313;33,9459;133,6336;0,0361;1,0232;0,6930;358,3649;348,0559;290,4851;15;0,0321;1,0344;0,3969;305,6313;33,9459;133,6336;0,0321;1,0240;0,7175;358,3649;348,0559;290,4851;16;0,0507;0,9403;0,2819;333,6133;352,9553;150,7760;0,0507;0,9860;0,5710;343,1582;1,5123;296,1794;17;0,0527;0,9634;0,3301;333,1537;1,8866;152,8384;0,0527;0,9992;0,6230;356,9317;359,6590;290,2096;18;0,0525;0,9809;0,3647;312,7934;15,3068;149,0301;0,0525;1,0013;0,6617;359,4321;352,3738;286,4078;19;0,0490;1,0003;0,3820;299,4685;23,3679;143,6511;0,0490;1,0015;0,6879;357,3912;347,2631;285,8123;20;0,0452;1,0207;0,3944;299,4685;23,3679;143,6511;0,0452;1,0028;0,7118;357,3912;347,2631;285,8123;21;0,0512;0,9392;0,2827;337,4029;10,3625;167,6534;0,0512;0,9775;0,5729;359,3271;3,3785;271,7483;22;0,0539;0,9566;0,3239;345,0017;3,9297;158,9584;0,0539;0,9781;0,6181;3,5357;3,1149;282,3139;23;0,0556;0,9645;0,3533;326,6226;16,0095;160,2448;0,0556;0,9762;0,6486;9,7749;351,4812;275,4180;24;0,0526;0,9756;0,3695;316,6477;12,7726;162,1485;0,0526;0,9728;0,6682;4,1838;350,7314;275,4110;25;0,0503;0,9898;0,3859;316,6477;12,7726;162,1485;0,0503;0,9715;0,6899;4,1838;350,7314;275,4110
25,073440,1099;-0,0073;-0,8059;22,45;86,04;-56,58;0;0,0434;0,9637;0,3012;332,9861;354,7675;150,6551;0,0434;1,0038;0,5998;346,7153;0,5227;297,3714;1;0,0486;0,9295;0,2467;332,9861;354,7675;150,6551;0,0486;0,9892;0,5367;346,7153;0,5227;297,3714;2;0,0201;0,9686;0,2619;315,9929;304,0852;115,1446;0,0201;1,0146;0,5669;324,9597;324,7950;29,6992;3;0,0048;0,9910;0,2749;313,6888;349,6234;91,6164;0,0048;1,0331;0,5886;328,4959;336,1149;13,8917;4;-0,0068;1,0153;0,2977;309,6081;7,5500;68,9648;-0,0068;1,0507;0,6147;319,7585;320,8288;32,6738;5;-0,0181;1,0339;0,3135;309,6081;7,5500;68,9648;-0,0181;1,0674;0,6286;319,7585;320,8288;32,6738;6;0,0311;0,9609;0,2693;332,9861;354,7675;150,6551;0,0311;1,0097;0,5696;346,7153;0,5227;297,3714;7;0,0322;0,9887;0,3218;331,5559;5,1086;142,2955;0,0322;1,0281;0,6257;351,3289;351,8069;302,6959;8;0,0269;1,0067;0,3548;312,8219;27,1653;131,5809;0,0269;1,0338;0,6626;356,6678;344,2158;300,4828;9;0,0204;1,0244;0,3694;307,0638;47,4717;117,8800;0,0204;1,0352;0,6858;359,9761;344,3784;298,5847;10;0,0154;1,0417;0,3794;307,0638;47,4717;117,8800;0,0154;1,0354;0,7075;359,9761;344,3784;298,5847;11;0,0404;0,9519;0,2727;332,9861;354,7675;150,6551;0,0404;0,9962;0,5705;346,7153;0,5227;297,3714;12;0,0464;0,9754;0,3296;328,3777;7,8342;145,5167;0,0464;1,0114;0,6292;359,2404;352,1446;296,9195;13;0,0406;0,9978;0,3656;314,6409;22,0495;137,9801;0,0406;1,0120;0,6714;3,7922;343,7709;295,3478;14;0,0330;1,0173;0,3835;309,1862;28,8198;138,6292;0,0330;1,0101;0,6977;3,3514;345,1360;290,5721;15;0,0278;1,0358;0,3982;309,1862;28,8198;138,6292;0,0278;1,0088;0,7219;3,3514;345,1360;290,5721;16;0,0505;0,9434;0,2798;332,9861;354,7675;150,6551;0,0505;0,9816;0,5740;346,7153;0,5227;297,3714;17;0,0517;0,9670;0,3279;335,1595;2,2881;153,2780;0,0517;0,9915;0,6267;0,6444;358,8772;291,2483;18;0,0509;0,9833;0,3630;317,8266;12,5954;151,8428;0,0509;0,9911;0,6655;3,6141;350,4154;286,8678;19;0,0465;1,0010;0,3821;305,1055;17,5214;149,2583;0,0465;0,9894;0,6915;1,6203;345,2116;285,8888;20;0,0419;1,0199;0,3967;305,1055;17,5214;149,2583;0,0419;0,9890;0,7152;1,6203;345,2116;285,8888;21;0,0512;0,9422;0,2804;336,8369;12,2432;167,3375;0,0512;0,9730;0,5753;2,8412;2,7230;273,0251;22;0,0533;0,9600;0,3211;349,9801;5,2605;158,2071;0,0533;0,9708;0,6206;7,0866;2,6630;283,6007;23;0,0547;0,9653;0,3511;334,5389;15,8622;160,9783;0,0547;0,9670;0,6508;13,5464;350,6719;275,8710;24;0,0516;0,9740;0,3686;325,1710;12,5925;162,5150;0,0516;0,9623;0,6702;7,9641;349,8420;275,8003;25;0,0489;0,9856;0,3868;325,1710;12,5925;162,5150;0,0489;0,9596;0,6917;7,9641;349,8420;275,8003
25,10122-0,0625;-0,0615;-0,8569;21,38;65,43;-46,94;0;0,0404;0,9654;0,2991;332,2145;356,5934;150,6406;0,0404;1,0009;0,6035;349,2470;359,8951;296,5471;1;0,0462;0,9306;0,2450;332,2145;356,5934;150,6406;0,0462;0,9888;0,5400;349,2470;359,8951;296,5471;2;0,0181;0,9695;0,2603;316,2814;304,2959;117,3882;0,0181;1,0142;0,5703;322,9466;328,2635;23,6731;3;0,0046;0,9918;0,2734;312,8266;348,1567;94,9815;0,0046;1,0336;0,5922;327,4970;339,2749;7,7940;4;-0,0054;1,0164;0,2958;307,3374;2,0475;75,0584;-0,0054;1,0517;0,6187;317,5368;324,9839;26,3136;5;-0,0152;1,0356;0,3109;307,3374;2,0475;75,0584;-0,0152;1,0691;0,6329;317,5368;324,9839;26,3136;6;0,0288;0,9621;0,2676;332,2145;356,5934;150,6406;0,0288;1,0085;0,5732;349,2470;359,8951;296,5471;7;0,0291;0,9908;0,3200;332,0204;5,9014;142,7012;0,0291;1,0240;0,6304;353,6502;351,3219;301,4785;8;0,0234;1,0085;0,3531;315,2758;24,3492;134,6650;0,0234;1,0282;0,6674;359,6818;342,0539;299,0012;9;0,0160;1,0255;0,3687;309,7464;40,6160;124,5679;0,0160;1,0283;0,6904;3,5392;341,0621;297,0742;10;0,0098;1,0421;0,3804;309,7464;40,6160;124,5679;0,0098;1,0271;0,7117;3,5392;341,0621;297,0742;11;0,0377;0,9532;0,2706;332,2145;356,5934;150,6406;0,0377;0,9948;0,5736;349,2470;359,8951;296,5471;12;0,0430;0,9776;0,3275;327,8025;9,6625;145,3573;0,0430;1,0070;0,6333;1,9311;351,3825;295,6958;13;0,0366;1,0003;0,3631;315,4815;22,3416;138,8140;0,0366;1,0055;0,6754;7,0446;341,1071;293,5268;14;0,0278;1,0195;0,3812;311,0810;27,4258;140,6600;0,0278;1,0022;0,7011;6,8550;341,8742;288,6953;15;0,0213;1,0375;0,3966;311,0810;27,4258;140,6600;0,0213;0,9993;0,7249;6,8550;341,8742;288,6953;16;0,0475;0,9448;0,2775;332,2145;356,5934;150,6406;0,0475;0,9796;0,5769;349,2470;359,8951;296,5471;17;0,0480;0,9691;0,3253;334,9697;3,8994;153,2678;0,0480;0,9872;0,6300;3,4023;357,7292;290,3402;18;0,0465;0,9855;0,3603;319,5934;12,8711;152,6415;0,0465;0,9849;0,6687;6,5179;348,0602;285,4070;19;0,0411;1,0027;0,3799;308,1520;16,0828;151,3725;0,0411;0,9819;0,6943;4,4063;342,7943;284,1591;20;0,0355;1,0207;0,3956;308,1520;16,0828;151,3725;0,0355;0,9802;0,7179;4,4063;342,7943;284,1591;21;0,0480;0,9437;0,2778;336,1049;14,1690;167,0707;0,0480;0,9710;0,5778;5,4006;1,8723;272,3098;22;0,0495;0,9620;0,3180;350,5842;7,3896;157,7225;0,0495;0,9667;0,6230;10,0013;1,9242;282,9072;23;0,0505;0,9670;0,3479;337,5409;17,1908;160,8275;0,0505;0,9614;0,6530;16,3228;348,7411;274,2355;24;0,0467;0,9747;0,3657;329,6819;13,4924;162,3700;0,0467;0,9557;0,6720;10,7212;348,0418;274,1563;25;0,0434;0,9848;0,3847;329,6819;13,4924;162,3700;0,0434;0,9520;0,6933;10,7212;348,0418;274,1563
25,12895-0,0562;-0,0625;-0,9065;14,46;39,05;-35,65;0;0,0384;0,9661;0,2978;331,6735;357,3175;150,6504;0,0384;0,9974;0,6070;352,8733;0,2938;293,9718;1;0,0437;0,9308;0,2441;331,6735;357,3175;150,6504;0,0437;0,9891;0,5430;352,8733;0,2938;293,9718;2;0,0172;0,9696;0,2592;316,1814;304,0237;118,7054;0,0172;1,0142;0,5745;322,7970;333,1293;16,3408;3;0,0055;0,9920;0,2722;312,2369;346,2896;97,3367;0,0055;1,0337;0,5974;328,4374;343,3273;0,9843;4;-0,0027;1,0168;0,2942;305,9624;356,4449;80,1233;-0,0027;1,0513;0,6248;317,1638;330,8291;18,3567;5;-0,0107;1,0363;0,3088;305,9624;356,4449;80,1233;-0,0107;1,0688;0,6399;317,1638;330,8291;18,3567;6;0,0273;0,9624;0,2666;331,6735;357,3175;150,6504;0,0273;1,0077;0,5772;352,8733;0,2938;293,9718;7;0,0281;0,9917;0,3187;333,0015;5,4035;143,2617;0,0281;1,0192;0,6354;356,7168;351,6946;298,4026;8;0,0226;1,0088;0,3522;317,6156;21,3124;137,1516;0,0226;1,0213;0,6727;2,4861;341,5193;295,4520;9;0,0150;1,0251;0,3688;312,4277;34,8272;129,5043;0,0150;1,0203;0,6956;6,4624;339,8481;293,4201;10;0,0084;1,0409;0,3820;312,4277;34,8272;129,5043;0,0084;1,0179;0,7167;6,4624;339,8481;293,4201;11;0,0355;0,9536;0,2695;331,6735;357,3175;150,6504;0,0355;0,9935;0,5768;352,8733;0,2938;293,9718;12;0,0412;0,9785;0,3262;327,4609;10,4071;145,2619;0,0412;1,0014;0,6372;5,2733;351,2040;292,5955;13;0,0347;1,0015;0,3616;316,1298;22,0160;139,4138;0,0347;0,9975;0,6792;10,0445;339,8098;289,7033;14;0,0254;1,0205;0,3799;312,3719;26,1611;141,9082;0,0254;0,9927;0,7045;9,9991;340,2370;284,8177;15;0,0183;1,0381;0,3958;312,3719;26,1611;141,9082;0,0183;0,9884;0,7279;9,9991;340,2370;284,8177;16;0,0445;0,9453;0,2762;331,6735;357,3175;150,6504;0,0445;0,9774;0,5793;352,8733;0,2938;293,9718;17;0,0453;0,9701;0,3238;334,6649;4,6384;153,2073;0,0453;0,9816;0,6327;7,7005;356,6931;287,4923;18;0,0431;0,9867;0,3587;320,5736;12,8155;153,0265;0,0431;0,9764;0,6711;10,4629;345,8452;281,6557;19;0,0368;1,0034;0,3786;309,9474;15,1478;152,3911;0,0368;0,9717;0,6962;8,0321;340,4998;280,0406;20;0,0303;1,0210;0,3948;309,9474;15,1478;152,3911;0,0303;0,9683;0,7194;8,0321;340,4998;280,0406;21;0,0447;0,9441;0,2764;335,5867;14,9674;166,9003;0,0447;0,9688;0,5796;9,0974;1,5600;269,8497;22;0,0459;0,9629;0,3163;350,4703;8,6342;157,3468;0,0459;0,9616;0,6244;15,2805;1,3927;280,3865;23;0,0466;0,9680;0,3461;338,5956;18,1106;160,5163;0,0466;0,9535;0,6539;20,8836;347,1627;270,2599;24;0,0424;0,9753;0,3640;331,4607;14,2232;162,0582;0,0424;0,9463;0,6722;15,2487;346,8249;270,2395;25;0,0388;0,9848;0,3832;331,4607;14,2232;162,0582;0,0388;0,9409;0,6931;15,2487;346,8249;270,2395
25,156920,0493;-0,0232;-0,9229;4,33;49,77;-28,17;0;0,0402;0,9665;0,2974;331,1331;357,5378;150,6864;0,0402;0,9794;0,6178;354,8765;2,0250;289,5453;1;0,0436;0,9307;0,2439;331,1331;357,5378;150,6864;0,0436;0,9728;0,5534;354,8765;2,0250;289,5453;2;0,0198;0,9696;0,2588;315,8516;303,7399;119,4120;0,0198;0,9989;0,5862;322,5797;337,0865;10,7346;3;0,0098;0,9921;0,2717;311,6805;345,9915;97,8309;0,0098;1,0185;0,6099;328,9799;346,5787;355,7996;4;0,0031;1,0172;0,2933;305,2728;355,2993;81,2019;0,0031;1,0358;0,6379;316,7772;335,5361;12,2756;5;-0,0035;1,0369;0,3077;305,2728;355,2993;81,2019;-0,0035;1,0534;0,6535;316,7772;335,5361;12,2756;6;0,0294;0,9625;0,2662;331,1331;357,5378;150,6864;0,0294;0,9914;0,5886;354,8765;2,0250;289,5453;7;0,0322;0,9923;0,3181;333,2987;5,0047;143,5434;0,0322;1,0008;0,6471;357,5009;352,9673;293,8113;8;0,0276;1,0092;0,3517;318,1635;20,3428;137,8595;0,0276;1,0025;0,6845;2,4586;342,2845;290,7930;9;0,0203;1,0254;0,3685;313,3762;32,7281;131,1288;0,0203;1,0014;0,7075;6,3173;340,2021;288,7316;10;0,0138;1,0409;0,3822;313,3762;32,7281;131,1288;0,0138;0,9990;0,7286;6,3173;340,2021;288,7316;11;0,0365;0,9538;0,2691;331,1331;357,5378;150,6864;0,0365;0,9767;0,5875;354,8765;2,0250;289,5453;12;0,0440;0,9792;0,3256;327,0407;10,7398;145,1442;0,0440;0,9820;0,6480;6,6581;351,9507;287,8709;13;0,0380;1,0024;0,3608;315,8050;22,3808;139,2165;0,0380;0,9771;0,6900;10,4660;340,1277;284,7360;14;0,0289;1,0215;0,3790;312,1573;26,4541;141,7368;0,0289;0,9721;0,7153;10,4790;340,4301;279,8185;15;0,0218;1,0392;0,3948;312,1573;26,4541;141,7368;0,0218;0,9675;0,7387;10,4790;340,4301;279,8185;16;0,0442;0,9455;0,2759;331,1331;357,5378;150,6864;0,0442;0,9599;0,5892;354,8765;2,0250;289,5453;17;0,0464;0,9707;0,3232;334,1476;5,0259;153,1030;0,0464;0,9622;0,6428;10,7271;355,9832;282,5789;18;0,0438;0,9876;0,3580;320,1980;13,2144;152,8590;0,0438;0,9550;0,6808;12,5174;344,7509;276,1878;19;0,0370;1,0045;0,3777;309,6852;15,5245;152,2246;0,0370;0,9492;0,7057;9,6077;339,3995;274,3935;20;0,0301;1,0222;0,3939;309,6852;15,5245;152,2246;0,0301;0,9451;0,7285;9,6077;339,3995;274,3935;21;0,0437;0,9444;0,2761;335,0623;15,2665;166,7528;0,0437;0,9512;0,5893;11,1495;2,0363;265,4019;22;0,0453;0,9635;0,3158;349,6691;9,5530;157,0244;0,0453;0,9424;0,6338;19,5879;358,9754;274,8766;23;0,0447;0,9690;0,3454;338,0741;19,0673;160,0574;0,0447;0,9322;0,6626;23,7098;343,7738;263,5451;24;0,0396;0,9765;0,3631;331,0329;15,1791;161,6292;0,0396;0,9241;0,6803;18,0715;344,0881;263,7419;25;0,0351;0,9861;0,3821;331,0329;15,1791;161,6292;0,0351;0,9174;0,7006;18,0715;344,0881;263,7419
25,1848-0,0244;0,0034;-0,9312;2,56;70,6;-26,69;0;0,0409;0,9669;0,2970;330,6765;357,8186;150,6490;0,0409;0,9648;0,6275;353,6138;2,8000;285,2587;1;0,0433;0,9306;0,2438;330,6765;357,8186;150,6490;0,0433;0,9563;0,5633;353,6138;2,8000;285,2587;2;0,0218;0,9697;0,2584;315,5125;303,6133;119,9346;0,0218;0,9850;0,5955;320,3205;334,0260;10,6789;3;0,0109;0,9924;0,2712;311,1857;346,0920;97,9697;0,0109;1,0056;0,6179;326,8224;343,7411;355,3113;4;0,0030;1,0177;0,2927;304,7375;355,1196;81,5056;0,0030;1,0240;0,6449;314,5855;332,4284;12,2916;5;-0,0042;1,0375;0,3069;304,7375;355,1196;81,5056;-0,0042;1,0422;0,6596;314,5855;332,4284;12,2916;6;0,0308;0,9626;0,2659;330,6765;357,8186;150,6490;0,0308;0,9769;0,5980;353,6138;2,8000;285,2587;7;0,0347;0,9929;0,3176;333,3160;4,9642;143,6155;0,0347;0,9875;0,6563;355,2061;353,3209;289,8621;8;0,0303;1,0098;0,3511;318,5291;19,8355;138,2422;0,0303;0,9906;0,6936;359,4887;342,2492;287,3539;9;0,0230;1,0258;0,3681;314,0441;31,5003;132,0911;0,0230;0,9909;0,7166;3,2452;339,8492;285,3943;10;0,0163;1,0411;0,3822;314,0441;31,5003;132,0911;0,0163;0,9896;0,7378;3,2452;339,8492;285,3943;11;0,0367;0,9539;0,2688;330,6765;357,8186;150,6490;0,0367;0,9617;0,5973;353,6138;2,8000;285,2587;12;0,0450;0,9798;0,3251;326,6845;11,1624;144,9541;0,0450;0,9679;0,6577;4,9197;351,2666;283,8146;13;0,0386;1,0033;0,3601;315,5202;22,8837;138,9245;0,0386;0,9642;0,6997;7,9378;339,2414;281,0951;14;0,0290;1,0224;0,3781;311,9439;26,9401;141,4378;0,0290;0,9605;0,7250;7,9893;339,3566;276,1206;15;0,0214;1,0402;0,3938;311,9439;26,9401;141,4378;0,0214;0,9568;0,7484;7,9893;339,3566;276,1206;16;0,0432;0,9457;0,2755;330,6765;357,8186;150,6490;0,0432;0,9443;0,5995;353,6138;2,8000;285,2587;17;0,0460;0,9713;0,3227;333,7012;5,4978;152,9221;0,0460;0,9478;0,6529;9,6781;354,6056;278,1983;18;0,0424;0,9885;0,3573;319,8573;13,7427;152,5976;0,0424;0,9413;0,6909;10,6494;343,2476;272,0646;19;0,0349;1,0055;0,3769;309,4372;16,0737;151,9354;0,0349;0,9364;0,7158;7,3814;337,9173;270,4512;20;0,0274;1,0232;0,3929;309,4372;16,0737;151,9354;0,0274;0,9331;0,7386;7,3814;337,9173;270,4512;21;0,0421;0,9446;0,2757;334,6373;15,6091;166,5645;0,0421;0,9357;0,5998;9,8424;1,5931;261,0778;22;0,0433;0,9640;0,3152;348,7499;10,6754;156,6084;0,0433;0,9280;0,6445;19,0474;357,2604;270,1860;23;0,0420;0,9700;0,3446;337,5800;20,2008;159,4933;0,0420;0,9180;0,6733;22,0033;341,7767;259,0270;24;0,0361;0,9776;0,3621;330,6265;16,3249;161,0877;0,0361;0,9105;0,6911;16,3976;342,5100;259,3533;25;0,0310;0,9874;0,3810;330,6265;16,3249;161,0877;0,0310;0,9043;0,7114;16,3976;342,5100;259,3533
25,2124-0,0991;-0,0024;-0,9495;-0,08;72,13;-18,97;0;0,0406;0,9671;0,2967;330,4896;358,0510;150,6658;0,0406;0,9528;0,6337;350,7289;3,0673;278,6967;1;0,0426;0,9307;0,2436;330,4896;358,0510;150,6658;0,0426;0,9406;0,5702;350,7289;3,0673;278,6967;2;0,0241;0,9699;0,2582;315,3350;303,6856;120,1387;0,0241;0,9732;0,6005;315,6107;328,7895;11,2843;3;0,0121;0,9926;0,2710;310,9565;346,3242;97,9487;0,0121;0,9958;0,6202;323,0953;339,0706;354,9804;4;0,0025;1,0179;0,2924;304,4944;355,1835;81,5923;0,0025;1,0159;0,6453;310,9448;327,0612;12,9890;5;-0,0054;1,0378;0,3065;304,4944;355,1835;81,5923;-0,0054;1,0352;0,6582;310,9448;327,0612;12,9890;6;0,0321;0,9628;0,2657;330,4896;358,0510;150,6658;0,0321;0,9643;0,6035;350,7289;3,0673;278,6967;7;0,0367;0,9932;0,3173;333,2223;5,1592;143,6308;0,0367;0,9777;0,6612;351,8516;350,6074;284,4036;8;0,0306;1,0102;0,3508;318,5549;19,9043;138,3225;0,0306;0,9830;0,6980;355,2553;338,6205;282,7296;9;0,0218;1,0262;0,3678;314,1505;31,4083;132,2924;0,0218;0,9850;0,7204;358,8414;335,7712;280,9733;10;0,0137;1,0415;0,3819;314,1505;31,4083;132,2924;0,0137;0,9854;0,7411;358,8414;335,7712;280,9733;11;0,0364;0,9541;0,2686;330,4896;358,0510;150,6658;0,0364;0,9485;0,6037;350,7289;3,0673;278,6967;12;0,0448;0,9802;0,3248;326,5567;11,5035;144,8852;0,0448;0,9572;0,6638;1,1513;348,0586;278,0117;13;0,0360;1,0037;0,3597;315,4305;23,2387;138,8295;0,0360;0,9563;0,7055;3,0594;335,6740;276,1859;14;0,0247;1,0229;0,3776;311,9118;27,2479;141,3674;0,0247;0,9549;0,7304;3,1348;335,0631;271,0920;15;0,0153;1,0406;0,3933;311,9118;27,2479;141,3674;0,0153;0,9532;0,7533;3,1348;335,0631;271,0920;16;0,0409;0,9459;0,2753;330,4896;358,0510;150,6658;0,0409;0,9307;0,6069;350,7289;3,0673;278,6967;17;0,0436;0,9716;0,3223;333,5366;5,9282;152,8216;0,0436;0,9369;0,6601;6,0483;352,5865;272,0895;18;0,0386;0,9889;0,3568;319,7766;14,1765;152,4788;0,0386;0,9328;0,6984;5,8930;341,1384;266,7675;19;0,0301;1,0060;0,3764;309,4384;16,4792;151,8316;0,0301;0,9301;0,7232;2,1350;335,6629;265,5826;20;0,0216;1,0237;0,3924;309,4384;16,4792;151,8316;0,0216;0,9288;0,7459;2,1350;335,6629;265,5826;21;0,0388;0,9447;0,2754;334,4549;15,8704;166,5166;0,0388;0,9223;0,6077;6,7188;0,0340;254,6209;22;0,0388;0,9643;0,3148;348,3261;11,5086;156,3640;0,0388;0,9170;0,6528;16,6868;356,2744;264,2438;23;0,0369;0,9705;0,3441;337,5423;20,9730;159,1987;0,0369;0,9083;0,6819;18,1880;340,7303;253,8498;24;0,0306;0,9782;0,3615;330,6858;17,0902;160,7958;0,0306;0,9020;0,7000;12,6533;341,9175;254,2509;25;0,0251;0,9879;0,3803;330,6858;17,0902;160,7958;0,0251;0,8971;0,7206;12,6533;341,9175;254,2509
25,2404-0,1494;0,0264;-1,0063;-9,31;42,35;-5,37;0;0,0393;0,9683;0,2957;329,5814;359,2393;150,0099;0,0393;0,9496;0,6296;349,6956;1,0509;276,5355;1;0,0434;0,9310;0,2432;329,5814;359,2393;150,0099;0,0434;0,9359;0,5664;349,6956;1,0509;276,5355;2;0,0250;0,9706;0,2575;314,2349;304,1367;120,6734;0,0250;0,9699;0,5952;313,9271;323,2810;12,8813;3;0,0116;0,9938;0,2702;309,8903;347,7842;97,1569;0,0116;0,9931;0,6132;321,7399;334,0314;356,0533;4;0,0000;1,0196;0,2912;303,4781;356,5588;80,7652;0,0000;1,0139;0,6369;309,8424;321,3752;14,7023;5;-0,0089;1,0397;0,3050;303,4781;356,5588;80,7652;-0,0089;1,0334;0,6487;309,8424;321,3752;14,7023;6;0,0325;0,9636;0,2650;329,5814;359,2393;150,0099;0,0325;0,9607;0,5988;349,6956;1,0509;276,5355;7;0,0352;0,9948;0,3161;332,3759;6,4483;142,8297;0,0352;0,9751;0,6564;350,5219;347,4924;282,7406;8;0,0271;1,0123;0,3493;317,9150;21,6447;137,1014;0,0271;0,9813;0,6927;353,6453;335,2134;281,4126;9;0,0170;1,0285;0,3660;313,7499;33,3241;130,8734;0,0170;0,9840;0,7145;357,2736;331,6612;279,7878;10;0,0074;1,0439;0,3797;313,7499;33,3241;130,8734;0,0074;0,9849;0,7346;357,2736;331,6612;279,7878;11;0,0361;0,9548;0,2678;329,5814;359,2393;150,0099;0,0361;0,9448;0,5995;349,6956;1,0509;276,5355;12;0,0424;0,9818;0,3236;325,8557;12,9652;143,9252;0,0424;0,9543;0,6597;359,7805;344,6272;276,2205;13;0,0311;1,0057;0,3580;314,8984;25,1008;137,5144;0,0311;0,9545;0,7008;1,3521;332,0041;274,7249;14;0,0182;1,0251;0,3755;311,4932;29,2124;139,9490;0,0182;0,9539;0,7250;1,4046;330,3673;269,5242;15;0,0070;1,0430;0,3908;311,4932;29,2124;139,9490;0,0070;0,9529;0,7471;1,4046;330,3673;269,5242;16;0,0398;0,9465;0,2744;329,5814;359,2393;150,0099;0,0398;0,9269;0,6032;349,6956;1,0509;276,5355;17;0,0406;0,9730;0,3210;332,8071;7,2152;152,0117;0,0406;0,9340;0,6564;4,7407;350,0924;270,1703;18;0,0339;0,9907;0,3552;319,1840;15,7838;151,4080;0,0339;0,9308;0,6945;4,2240;338,5791;265,1377;19;0,0243;1,0080;0,3744;308,9490;18,3600;150,5447;0,0243;0,9289;0,7190;0,2716;332,7455;264,0851;20;0,0146;1,0258;0,3902;308,9490;18,3600;150,5447;0,0146;0,9283;0,7412;0,2716;332,7455;264,0851;21;0,0374;0,9453;0,2744;333,7646;17,1288;165,6059;0,0374;0,9186;0,6041;5,5636;357,4279;252,5428;22;0,0354;0,9653;0,3133;347,6526;12,5794;155,5509;0,0354;0,9142;0,6492;17,8954;359,5460;264,3045;23;0,0351;0,9719;0,3424;337,0976;22,2120;158,2376;0,0351;0,9048;0,6782;19,3467;343,8168;253,5372;24;0,0298;0,9797;0,3596;330,2785;18,4033;159,8280;0,0298;0,8981;0,6965;13,7954;344,9603;253,9489;25;0,0255;0,9896;0,3783;330,2785;18,4033;159,8280;0,0255;0,8929;0,7173;13,7954;344,9603;253,9489
25,26807-0,1313;0,0364;-1,0105;-13,76;31,19;-5,3;0;0,0374;0,9693;0,2943;328,7559;0,2067;149,5453;0,0374;0,9526;0,6252;350,2274;359,7150;277,0706;1;0,0430;0,9313;0,2424;328,7559;0,2067;149,5453;0,0430;0,9396;0,5620;350,2274;359,7150;277,0706;2;0,0238;0,9713;0,2564;313,3747;304,3745;121,3228;0,0238;0,9732;0,5906;314,0392;322,0537;12,6836;3;0,0100;0,9948;0,2689;308,9578;348,8472;96,7058;0,0100;0,9964;0,6083;321,8724;332,7518;355,9078;4;-0,0021;1,0209;0,2896;302,5541;357,4227;80,3857;-0,0021;1,0172;0,6318;309,9305;320,1672;14,4896;5;-0,0113;1,0412;0,3031;302,5541;357,4227;80,3857;-0,0113;1,0366;0,6434;309,9305;320,1672;14,4896;6;0,0313;0,9643;0,2638;328,7559;0,2067;149,5453;0,0313;0,9640;0,5943;350,2274;359,7150;277,0706;7;0,0324;0,9963;0,3146;331,1887;7,9436;142,0032;0,0324;0,9778;0,6522;351,1324;346,2076;283,1337;8;0,0236;1,0144;0,3473;316,8816;23,7962;135,6422;0,0236;0,9836;0,6883;354,3148;334,0113;281,6589;9;0,0130;1,0309;0,3634;312,9587;35,8269;129,0323;0,0130;0,9860;0,7099;357,9788;330,3526;279,9980;10;0,0029;1,0466;0,3766;312,9587;35,8269;129,0323;0,0029;0,9867;0,7298;357,9788;330,3526;279,9980;11;0,0350;0,9554;0,2666;328,7559;0,2067;149,5453;0,0350;0,9481;0,5949;350,2274;359,7150;277,0706;12;0,0398;0,9832;0,3221;325,1975;14,1698;143,1834;0,0398;0,9571;0,6554;0,5173;343,3877;276,5555;13;0,0276;1,0075;0,3560;314,3322;26,7053;136,4126;0,0276;0,9567;0,6963;2,1496;330,7071;274,8884;14;0,0142;1,0271;0,3731;311,0144;30,9204;138,7416;0,0142;0,9557;0,7201;2,2057;328,9408;269,6473;15;0,0024;1,0452;0,3880;311,0144;30,9204;138,7416;0,0024;0,9544;0,7420;2,2057;328,9408;269,6473;16;0,0387;0,9472;0,2731;328,7559;0,2067;149,5453;0,0387;0,9302;0,5987;350,2274;359,7150;277,0706;17;0,0382;0,9743;0,3193;332,4159;8,0591;151,5080;0,0382;0,9368;0,6519;5,4458;348,9657;270,5828;18;0,0308;0,9922;0,3533;318,8161;16,8674;150,7218;0,0308;0,9331;0,6897;4,9928;337,3850;265,3946;19;0,0207;1,0096;0,3724;308,6552;19,6125;149,7229;0,0207;0,9308;0,7140;1,0514;331,4227;264,2510;20;0,0105;1,0275;0,3879;308,6552;19,6125;149,7229;0,0105;0,9300;0,7360;1,0514;331,4227;264,2510;21;0,0363;0,9458;0,2731;333,1021;18,1749;164,8974;0,0363;0,9218;0,5994;6,1271;356,2357;253,0383;22;0,0334;0,9664;0,3115;348,2831;12,8166;155,0165;0,0334;0,9170;0,6444;18,5497;358,7440;264,9514;23;0,0327;0,9726;0,3406;337,8080;22,5073;157,7944;0,0327;0,9073;0,6733;20,1385;342,9429;253,9696;24;0,0272;0,9802;0,3579;331,0221;18,7583;159,3157;0,0272;0,9003;0,6914;14,5635;343,9896;254,3676;25;0,0225;0,9898;0,3766;331,0221;18,7583;159,3157;0,0225;0,8948;0,7120;14,5635;343,9896;254,3676
25,29624-0,1169;0,0081;-1,0005;-18,69;22,87;-2,2;0;0,0349;0,9704;0,2925;328,0613;2,0686;149,3815;0,0349;0,9558;0,6214;350,9700;358,2139;277,4434;1;0,0422;0,9318;0,2411;328,0613;2,0686;149,3815;0,0422;0,9436;0,5583;350,9700;358,2139;277,4434;2;0,0223;0,9720;0,2552;312,8127;305,6389;122,0058;0,0223;0,9769;0,5867;314,0438;320,9840;11,9862;3;0,0082;0,9957;0,2680;308,2254;350,7590;96,5463;0,0082;1,0001;0,6041;321,9223;331,5581;355,2976;4;-0,0044;1,0221;0,2885;301,8039;359,0908;80,3565;-0,0044;1,0208;0,6274;309,8530;319,1620;13,7505;5;-0,0137;1,0426;0,3018;301,8039;359,0908;80,3565;-0,0137;1,0403;0,6388;309,8530;319,1620;13,7505;6;0,0296;0,9651;0,2625;328,0613;2,0686;149,3815;0,0296;0,9676;0,5905;350,9700;358,2139;277,4434;7;0,0291;0,9977;0,3129;329,1040;11,3368;140,9291;0,0291;0,9806;0,6486;351,7034;345,7940;283,1354;8;0,0199;1,0170;0,3447;314,2061;29,5062;132,5712;0,0199;0,9860;0,6848;354,8517;333,7151;281,5297;9;0,0093;1,0343;0,3593;310,7870;42,4875;124,9068;0,0093;0,9882;0,7064;358,5234;329,9510;279,8400;10;-0,0009;1,0506;0,3709;310,7870;42,4875;124,9068;-0,0009;0,9886;0,7261;358,5234;329,9510;279,8400;11;0,0333;0,9562;0,2650;328,0613;2,0686;149,3815;0,0333;0,9517;0,5910;350,9700;358,2139;277,4434;12;0,0365;0,9846;0,3201;324,5791;16,2265;142,7800;0,0365;0,9599;0,6518;1,3920;342,1798;276,6820;13;0,0235;1,0094;0,3534;313,7194;29,1177;135,6719;0,0235;0,9588;0,6924;3,0325;329,4715;274,8185;14;0,0096;1,0292;0,3700;310,4632;33,4197;137,9048;0,0096;0,9574;0,7160;3,0852;327,5942;269,5336;15;-0,0027;1,0474;0,3844;310,4632;33,4197;137,9048;-0,0027;0,9557;0,7375;3,0852;327,5942;269,5336;16;0,0370;0,9480;0,2711;328,0613;2,0686;149,3815;0,0370;0,9337;0,5947;350,9700;358,2139;277,4434;17;0,0352;0,9756;0,3169;332,6692;9,4116;151,5072;0,0352;0,9396;0,6480;6,3197;347,6487;270,8057;18;0,0269;0,9934;0,3508;318,8975;18,3120;150,6941;0,0269;0,9353;0,6856;5,8919;336,0296;265,4340;19;0,0163;1,0108;0,3697;308,7775;21,0227;149,7214;0,0163;0,9326;0,7096;1,9403;329,9695;264,1864;20;0,0055;1,0287;0,3852;308,7775;21,0227;149,7214;0,0055;0,9314;0,7313;1,9403;329,9695;264,1864;21;0,0347;0,9466;0,2708;332,4846;20,1297;164,5067;0,0347;0,9253;0,5953;6,8903;354,8323;253,3631;22;0,0306;0,9676;0,3086;349,6425;13,6364;154,8309;0,0306;0,9199;0,6401;19,3793;357,9398;265,5253;23;0,0296;0,9731;0,3377;339,1264;23,2952;157,8411;0,0296;0,9098;0,6689;21,0822;342,0541;254,2819;24;0,0238;0,9803;0,3551;332,3849;19,5672;159,2741;0,0238;0,9025;0,6868;15,4886;343,0238;254,6721;25;0,0188;0,9895;0,3739;332,3849;19,5672;159,2741;0,0188;0,8966;0,7072;15,4886;343,0238;254,6721
25,324-0,1228;0,0168;-0,9871;-19,89;13,04;0,11;0;0,0301;0,9713;0,2910;328,1934;3,3147;150,0601;0,0301;0,9626;0,6179;351,6712;356,6663;279,7579;1;0,0391;0,9328;0,2395;328,1934;3,3147;150,0601;0,0391;0,9514;0,5549;351,6712;356,6663;279,7579;2;0,0177;0,9729;0,2543;313,1157;307,2661;121,9448;0,0177;0,9837;0,5829;314,7013;320,5285;11,9231;3;0,0033;0,9965;0,2677;308,4572;352,2694;96,7108;0,0033;1,0067;0,6005;322,5070;331,0052;355,3856;4;-0,0096;1,0228;0,2884;302,0154;0,4783;80,6398;-0,0096;1,0271;0,6238;310,4604;318,7385;13,6542;5;-0,0192;1,0432;0,3018;302,0154;0,4783;80,6398;-0,0192;1,0465;0,6353;310,4604;318,7385;13,6542;6;0,0252;0,9659;0,2614;328,1934;3,3147;150,0601;0,0252;0,9746;0,5870;351,6712;356,6663;279,7579;7;0,0227;0,9983;0,3119;327,3203;14,4652;140,5560;0,0227;0,9868;0,6453;351,8899;348,1393;284,6064;8;0,0150;1,0187;0,3426;311,3156;35,6344;129,6098;0,0150;0,9921;0,6818;355,1161;337,1234;282,8370;9;0,0057;1,0368;0,3556;308,3793;49,7946;120,6425;0,0057;0,9942;0,7040;358,8708;333,4497;281,1225;10;-0,0033;1,0538;0,3655;308,3793;49,7946;120,6425;-0,0033;0,9945;0,7243;358,8708;333,4497;281,1225;11;0,0294;0,9572;0,2635;328,1934;3,3147;150,0601;0,0294;0,9589;0,5874;351,6712;356,6663;279,7579;12;0,0309;0,9855;0,3185;324,5343;17,4472;143,4844;0,0309;0,9664;0,6484;2,5289;342,5072;278,7366;13;0,0181;1,0102;0,3517;313,2438;30,5940;136,1617;0,0181;0,9645;0,6891;4,5841;329,9198;276,5821;14;0,0044;1,0302;0,3678;309,9808;34,8722;138,3860;0,0044;0,9623;0,7127;4,6941;328,0168;271,2411;15;-0,0077;1,0485;0,3819;309,9808;34,8722;138,3860;-0,0077;0,9600;0,7342;4,6941;328,0168;271,2411;16;0,0337;0,9491;0,2691;328,1934;3,3147;150,0601;0,0337;0,9408;0,5911;351,6712;356,6663;279,7579;17;0,0305;0,9767;0,3148;333,1554;10,4041;152,3170;0,0305;0,9461;0,6444;7,4540;346,7328;272,9450;18;0,0216;0,9942;0,3488;318,6332;19,4470;151,4519;0,0216;0,9411;0,6818;7,4317;335,0818;267,2992;19;0,0106;1,0116;0,3675;308,5135;21,9366;150,6300;0,0106;0,9377;0,7055;3,6640;328,8179;265,8563;20;-0,0005;1,0296;0,3828;308,5135;21,9366;150,6300;-0,0005;0,9358;0,7269;3,6640;328,8179;265,8563;21;0,0316;0,9478;0,2685;332,4313;21,4270;165,1708;0,0316;0,9324;0,5915;7,7127;353,9220;255,6287;22;0,0269;0,9688;0,3060;350,4237;14,6384;155,5182;0,0269;0,9263;0,6362;19,9307;356,1911;267,4219;23;0,0250;0,9739;0,3351;339,6751;24,1627;158,6822;0,0250;0,9159;0,6648;22,0766;340,1793;255,9215;24;0,0186;0,9809;0,3524;333,0185;20,3296;160,1223;0,0186;0,9083;0,6824;16,4462;340,9311;256,2556;25;0,0130;0,9899;0,3712;333,0185;20,3296;160,1223;0,0130;0,9021;0,7026;16,4462;340,9311;256,2556
25,35182-0,0757;0,0012;-0,9434;-23,66;-19,69;1,79;0;0,0268;0,9721;0,2911;328,2531;3,5038;150,2198;0,0268;0,9682;0,6175;352,1254;356,0705;279,9892;1;0,0364;0,9336;0,2395;328,2531;3,5038;150,2198;0,0364;0,9574;0,5544;352,1254;356,0705;279,9892;2;0,0147;0,9738;0,2545;312,7568;308,0015;121,2496;0,0147;0,9895;0,5826;315,0358;320,7897;11,2108;3;0,0002;0,9976;0,2680;308,5170;353,6028;95,4627;0,0002;1,0123;0,6003;322,8396;331,1018;354,8282;4;-0,0127;1,0238;0,2888;302,2011;2,1843;79,0991;-0,0127;1,0326;0,6237;310,7450;319,1033;12,8620;5;-0,0223;1,0443;0,3022;302,2011;2,1843;79,0991;-0,0223;1,0519;0,6354;310,7450;319,1033;12,8620;6;0,0221;0,9668;0,2615;328,2531;3,5038;150,2198;0,0221;0,9804;0,5866;352,1254;356,0705;279,9892;7;0,0190;0,9990;0,3121;326,9824;15,1173;140,4596;0,0190;0,9921;0,6450;352,2242;348,0211;284,6916;8;0,0112;1,0196;0,3426;310,8455;36,8060;129,0475;0,0112;0,9972;0,6815;355,3409;337,5417;282,8127;9;0,0020;1,0379;0,3552;307,9614;51,2956;119,7550;0,0020;0,9992;0,7038;359,0847;333,9120;281,0823;10;-0,0068;1,0549;0,3647;307,9614;51,2956;119,7550;-0,0068;0,9994;0,7242;359,0847;333,9120;281,0823;11;0,0263;0,9580;0,2636;328,2531;3,5038;150,2198;0,0263;0,9646;0,5869;352,1254;356,0705;279,9892;12;0,0272;0,9862;0,3186;324,5139;17,6551;143,6409;0,0272;0,9717;0,6480;2,9395;342,5792;278,8745;13;0,0145;1,0110;0,3517;313,1197;30,8708;136,2596;0,0145;0,9695;0,6887;4,9845;330,2508;276,6505;14;0,0009;1,0310;0,3678;309,8826;35,1094;138,5042;0,0009;0,9671;0,7123;5,0960;328,3704;271,3005;15;-0,0110;1,0493;0,3817;309,8826;35,1094;138,5042;-0,0110;0,9647;0,7340;5,0960;328,3704;271,3005;16;0,0307;0,9499;0,2690;328,2531;3,5038;150,2198;0,0307;0,9466;0,5905;352,1254;356,0705;279,9892;17;0,0269;0,9774;0,3148;333,2617;10,5216;152,5175;0,0269;0,9515;0,6438;7,9527;346,2228;273,0961;18;0,0178;0,9949;0,3488;318,5562;19,5954;151,6402;0,0178;0,9461;0,6811;7,9528;334,6103;267,3539;19;0,0066;1,0124;0,3674;308,4633;22,0067;150,8717;0,0066;0,9425;0,7047;4,1839;328,2832;265,8450;20;-0,0048;1,0303;0,3827;308,4633;22,0067;150,8717;-0,0048;0,9403;0,7260;4,1839;328,2832;265,8450;21;0,0287;0,9487;0,2684;332,4459;21,6231;165,3373;0,0287;0,9382;0,5908;8,1773;353,3878;255,8380;22;0,0235;0,9697;0,3058;350,5045;14,7294;155,7305;0,0235;0,9317;0,6354;20,3106;355,6143;267,6195;23;0,0213;0,9747;0,3349;339,6533;24,2351;158,9102;0,0213;0,9211;0,6640;22,4689;339,4604;255,9566;24;0,0148;0,9817;0,3522;333,0518;20,3556;160,3688;0,0148;0,9134;0,6815;16,8251;340,1549;256,2764;25;0,0089;0,9906;0,3711;333,0518;20,3556;160,3688;0,0089;0,9071;0,7015;16,8251;340,1549;256,2764
25,37949-0,0442;-0,0085;-0,9348;-23,24;-29,15;1,88;0;0,0244;0,9728;0,2912;328,2542;3,6363;150,1770;0,0244;0,9714;0,6174;352,5974;355,4564;279,7423;1;0,0347;0,9342;0,2396;328,2542;3,6363;150,1770;0,0347;0,9612;0,5544;352,5974;355,4564;279,7423;2;0,0127;0,9747;0,2546;312,2220;308,6600;120,4464;0,0127;0,9931;0,5825;315,2097;320,8077;10,3755;3;-0,0017;0,9986;0,2682;308,5081;355,1940;93,7709;-0,0017;1,0159;0,6003;323,0132;330,9597;354,1223;4;-0,0148;1,0249;0,2890;302,3774;4,3049;76,9851;-0,0148;1,0361;0,6237;310,8596;319,2358;11,9433;5;-0,0243;1,0453;0,3025;302,3774;4,3049;76,9851;-0,0243;1,0553;0,6355;310,8596;319,2358;11,9433;6;0,0201;0,9676;0,2616;328,2542;3,6363;150,1770;0,0201;0,9839;0,5866;352,5974;355,4564;279,7423;7;0,0164;0,9997;0,3122;326,6126;15,7352;140,1395;0,0164;0,9951;0,6450;352,4872;347,8993;284,3056;8;0,0085;1,0204;0,3425;310,4982;37,8985;128,3024;0,0085;1,0001;0,6815;355,4300;337,8596;282,3503;9;-0,0006;1,0388;0,3549;307,6963;52,6919;118,7243;-0,0006;1,0020;0,7038;359,1318;334,2664;280,6141;10;-0,0093;1,0559;0,3640;307,6963;52,6919;118,7243;-0,0093;1,0022;0,7243;359,1318;334,2664;280,6141;11;0,0243;0,9587;0,2637;328,2542;3,6363;150,1770;0,0243;0,9682;0,5868;352,5974;355,4564;279,7423;12;0,0245;0,9868;0,3187;324,4699;17,8183;143,5796;0,0245;0,9747;0,6480;3,2214;342,6296;278,5654;13;0,0118;1,0116;0,3517;313,0384;31,1312;136,1226;0,0118;0,9723;0,6886;5,1243;330,9173;276,3455;14;-0,0015;1,0316;0,3677;309,8515;35,3291;138,3894;-0,0015;0,9698;0,7124;5,2250;329,0824;270,9997;15;-0,0132;1,0500;0,3816;309,8515;35,3291;138,3894;-0,0132;0,9673;0,7342;5,2250;329,0824;270,9997;16;0,0285;0,9505;0,2691;328,2542;3,6363;150,1770;0,0285;0,9501;0,5903;352,5974;355,4564;279,7423;17;0,0242;0,9781;0,3148;333,3162;10,5555;152,5242;0,0242;0,9545;0,6436;8,3689;345,5813;272,7784;18;0,0146;0,9955;0,3488;318,5263;19,6792;151,6222;0,0146;0,9488;0,6807;8,3013;334,0376;266,9714;19;0,0032;1,0129;0,3675;308,4777;22,0578;150,8749;0,0032;0,9450;0,7042;4,4847;327,6843;265,4215;20;-0,0084;1,0309;0,3827;308,4777;22,0578;150,8749;-0,0084;0,9428;0,7254;4,4847;327,6843;265,4215;21;0,0265;0,9493;0,2685;332,4582;21,7510;165,2987;0,0265;0,9416;0,5905;8,6372;352,7014;255,5683;22;0,0208;0,9703;0,3058;350,5149;14,5227;155,8476;0,0208;0,9348;0,6350;20,6943;354,7992;267,3182;23;0,0182;0,9753;0,3350;339,5861;24,0286;159,0281;0,0182;0,9240;0,6635;22,7387;338,5090;255,5108;24;0,0114;0,9823;0,3523;333,0355;20,1145;160,5034;0,0114;0,9162;0,6808;17,0872;339,1971;255,8317;25;0,0051;0,9913;0,3712;333,0355;20,1145;160,5034;0,0051;0,9098;0,7007;17,0872;339,1971;255,8317
25,40768-0,0312;-0,0212;-0,9307;-22,25;-33,5;0,4;0;0,0690;0,9707;0,0841;328,4802;347,5392;149,5173;0,0690;0,9781;0,4679;353,8735;339,5670;277,4454;1;0,0961;0,9323;0,0335;328,4802;347,5392;149,5173;0,0961;0,9691;0,4099;353,8735;339,5670;277,4454;2;0,0681;0,9731;0,0427;311,3965;293,2961;118,9306;0,0681;1,0011;0,4319;315,0222;307,3833;6,5978;3;0,0500;0,9973;0,0511;308,6717;340,7811;91,3184;0,0500;1,0239;0,4458;323,2965;316,8676;350,7887;4;0,0316;1,0236;0,0710;302,8200;350,5141;74,0577;0,0316;1,0440;0,4654;310,6624;306,2563;7,8384;5;0,0197;1,0439;0,0841;302,8200;350,5141;74,0577;0,0197;1,0633;0,4748;310,6624;306,2563;7,8384;6;0,0738;0,9658;0,0514;328,4802;347,5392;149,5173;0,0738;0,9916;0,4375;353,8735;339,5670;277,4454;7;0,0543;0,9976;0,1001;326,8519;359,8414;139,4185;0,0543;1,0014;0,4930;353,3916;332,1097;281,8510;8;0,0367;1,0182;0,1317;310,4155;23,2288;126,7677;0,0367;1,0058;0,5261;355,8793;322,0440;279,7802;9;0,0219;1,0366;0,1461;307,6940;38,6951;116,6586;0,0219;1,0075;0,5451;359,4109;318,3241;278,0265;10;0,0079;1,0538;0,1576;307,6940;38,6951;116,6586;0,0079;1,0076;0,5624;359,4109;318,3241;278,0265;11;0,0773;0,9568;0,0572;328,4802;347,5392;149,5173;0,0773;0,9757;0,4383;353,8735;339,5670;277,4454;12;0,0606;0,9846;0,1110;324,8187;1,7017;142,9893;0,0606;0,9806;0,4974;3,8812;326,4868;276,0717;13;0,0371;1,0092;0,1459;313,4904;15,0831;135,5582;0,0371;0,9777;0,5329;5,2262;315,2571;273,8163;14;0,0179;1,0290;0,1641;310,3985;19,1942;137,9050;0,0179;0,9752;0,5522;5,2475;313,4723;268,4783;15;0,0008;1,0473;0,1802;310,3985;19,1942;137,9050;0,0008;0,9726;0,5700;5,2475;313,4723;268,4783;16;0,0798;0,9483;0,0669;328,4802;347,5392;149,5173;0,0798;0,9573;0,4422;353,8735;339,5670;277,4454;17;0,0609;0,9756;0,1125;333,7476;354,2115;152,0113;0,0609;0,9606;0,4924;9,1638;329,3438;270,3323;18;0,0414;0,9928;0,1471;319,0331;3,4378;151,1145;0,0414;0,9544;0,5253;8,6080;317,9195;264,4369;19;0,0239;1,0101;0,1670;309,0791;5,8593;150,3481;0,0239;0,9504;0,5447;4,5133;311,7192;262,8850;20;0,0070;1,0279;0,1833;309,0791;5,8593;150,3481;0,0070;0,9481;0,5618;4,5133;311,7192;262,8850;21;0,0776;0,9470;0,0688;332,8472;5,5478;164,7763;0,0776;0,9490;0,4416;9,7888;336,1608;253,1914;22;0,0595;0,9677;0,1090;351,1369;357,7212;155,4810;0,0595;0,9413;0,4825;21,8265;337,8336;264,8732;23;0,0488;0,9724;0,1391;340,2492;7,2657;158,7567;0,0488;0,9299;0,5088;23,1798;321,3593;252,7859;24;0,0372;0,9792;0,1580;333,7384;3,3850;160,1762;0,0372;0,9220;0,5233;17,5545;322,2948;253,1982;25;0,0255;0,9879;0,1780;333,7384;3,3850;160,1762;0,0255;0,9153;0,5404;17,5545;322,2948;253,1982
25,4353-0,0427;-0,0127;-0,9177;-21,02;-39,66;-1,15;0;0,0629;0,9724;0,0727;328,3510;348,0095;149,5372;0,0629;0,9797;0,4746;353,9363;340,3523;277,4585;1;0,0893;0,9339;0,0220;328,3510;348,0095;149,5372;0,0893;0,9708;0,4163;353,9363;340,3523;277,4585;2;0,0615;0,9749;0,0314;310,8807;294,1161;118,4143;0,0615;1,0027;0,4387;315,1609;308,2841;6,5333;3;0,0435;0,9993;0,0400;308,5758;342,8812;89,5946;0,0435;1,0255;0,4529;323,4594;317,7356;350,7646;4;0,0254;1,0256;0,0600;303,1345;354,1682;71,0982;0,0254;1,0455;0,4729;310,8559;307,1744;7,7544;5;0,0136;1,0459;0,0734;303,1345;354,1682;71,0982;0,0136;1,0647;0,4825;310,8559;307,1744;7,7544;6;0,0672;0,9675;0,0400;328,3510;348,0095;149,5372;0,0672;0,9932;0,4442;353,9363;340,3523;277,4585;7;0,0485;0,9994;0,0887;325,8961;1,3233;138,8250;0,0485;1,0030;0,5000;353,4346;332,9464;281,8490;8;0,0315;1,0205;0,1199;307,7569;30,1398;121,7445;0,0315;1,0073;0,5333;355,9173;322,9043;279,7690;9;0,0169;1,0396;0,1327;305,2532;50,5868;107,1886;0,0169;1,0090;0,5525;359,4454;319,2032;278,0124;10;0,0032;1,0574;0,1419;305,2532;50,5868;107,1886;0,0032;1,0091;0,5700;359,4454;319,2032;278,0124;11;0,0708;0,9584;0,0458;328,3510;348,0095;149,5372;0,0708;0,9773;0,4450;353,9363;340,3523;277,4585;12;0,0550;0,9863;0,0996;324,6914;2,1546;142,9902;0,0550;0,9822;0,5042;3,8579;327,3645;276,0917;13;0,0320;1,0110;0,1344;313,3802;15,5472;135,5306;0,0320;0,9793;0,5401;5,1982;316,2708;273,8530;14;0,0132;1,0309;0,1525;310,3636;19,5669;137,9324;0,0132;0,9768;0,5598;5,2222;314,5466;268,5273;15;-0,0036;1,0491;0,1686;310,3636;19,5669;137,9324;-0,0036;0,9742;0,5779;5,2222;314,5466;268,5273;16;0,0734;0,9500;0,0553;328,3510;348,0095;149,5372;0,0734;0,9590;0,4488;353,9363;340,3523;277,4585;17;0,0552;0,9774;0,1009;333,7566;354,5254;152,0940;0,0552;0,9621;0,4992;9,1186;330,4664;270,3997;18;0,0363;0,9945;0,1355;319,0609;3,7011;151,2273;0,0363;0,9560;0,5325;8,5989;319,2746;264,5516;19;0,0193;1,0118;0,1554;309,1971;6,0063;150,5418;0,0193;0,9520;0,5523;4,5173;313,0730;263,0002;20;0,0028;1,0296;0,1718;309,1971;6,0063;150,5418;0,0028;0,9497;0,5699;4,5173;313,0730;263,0002;21;0,0711;0,9486;0,0571;332,7191;6,0409;164,7495;0,0711;0,9506;0,4482;9,8523;336,9491;253,2008;22;0,0536;0,9694;0,0972;350,9865;357,8340;155,6552;0,0536;0,9429;0,4894;21,7051;338,7610;264,9280;23;0,0434;0,9742;0,1273;340,0667;7,3557;158,9101;0,0434;0,9316;0,5158;23,0958;322,3657;252,9042;24;0,0320;0,9811;0,1462;333,6349;3,4222;160,3594;0,0320;0,9236;0,5305;17,4663;323,2799;253,3078;25;0,0206;0,9898;0,1662;333,6349;3,4222;160,3594;0,0206;0,9170;0,5479;17,4663;323,2799;253,3078
25,46308-0,0127;-0,0293;-0,8867;-26,02;-62,4;-4,34;0;0,0617;0,9731;0,0714;328,3643;348,1604;150,1290;0,0617;0,9800;0,4792;353,7124;341,3817;278,5476;1;0,0871;0,9346;0,0207;328,3643;348,1604;150,1290;0,0871;0,9709;0,4204;353,7124;341,3817;278,5476;2;0,0592;0,9755;0,0302;310,9670;294,5948;118,3444;0,0592;1,0026;0,4431;315,6528;308,7397;7,7925;3;0,0412;0,9999;0,0390;308,6782;344,4631;88,6625;0,0412;1,0252;0,4576;323,7546;318,3712;351,9569;4;0,0232;1,0262;0,0592;303,6818;357,4690;68,8335;0,0232;1,0450;0,4778;311,3250;307,4990;9,1056;5;0,0113;1,0463;0,0729;303,6818;357,4690;68,8335;0,0113;1,0641;0,4875;311,3250;307,4990;9,1056;6;0,0652;0,9681;0,0388;328,3643;348,1604;150,1290;0,0652;0,9932;0,4486;353,7124;341,3817;278,5476;7;0,0475;0,9999;0,0876;325,6205;1,7100;139,2713;0,0475;1,0033;0,5046;353,3387;334,0802;282,9413;8;0,0311;1,0212;0,1187;306,3033;33,4124;119,7449;0,0311;1,0077;0,5383;356,0098;324,0964;280,8563;9;0,0170;1,0407;0,1306;304,0155;56,9336;102,3736;0,0170;1,0093;0,5578;359,6053;320,4745;279,0885;10;0,0036;1,0588;0,1384;304,0155;56,9336;102,3736;0,0036;1,0094;0,5756;359,6053;320,4745;279,0885;11;0,0691;0,9592;0,0445;328,3643;348,1604;150,1290;0,0691;0,9774;0,4495;353,7124;341,3817;278,5476;12;0,0543;0,9870;0,0983;324,5762;2,2447;143,6041;0,0543;0,9826;0,5089;3,7918;328,6840;277,2211;13;0,0322;1,0118;0,1330;313,1324;15,5317;136,1819;0,0322;0,9798;0,5453;5,3353;317,7861;274,9924;14;0,0139;1,0317;0,1511;310,1427;19,4414;138,6475;0,0139;0,9773;0,5655;5,3939;316,1432;269,6776;15;-0,0024;1,0500;0,1671;310,1427;19,4414;138,6475;-0,0024;0,9746;0,5841;5,3939;316,1432;269,6776;16;0,0720;0,9508;0,0539;328,3643;348,1604;150,1290;0,0720;0,9592;0,4534;353,7124;341,3817;278,5476;17;0,0548;0,9782;0,0995;333,9162;354,5634;152,7375;0,0548;0,9625;0,5041;8,9323;332,4457;271,6330;18;0,0371;0,9953;0,1341;319,1303;3,5050;152,0163;0,0371;0,9565;0,5380;8,6930;321,8098;265,8941;19;0,0210;1,0126;0,1540;309,3200;5,5280;151,5326;0,0210;0,9525;0,5586;4,7596;315,5555;264,3204;20;0,0052;1,0303;0,1705;309,3200;5,5280;151,5326;0,0052;0,9501;0,5768;4,7596;315,5555;264,3204;21;0,0699;0,9496;0,0556;332,5755;6,2523;165,2934;0,0699;0,9508;0,4529;9,6901;338,2841;254,3106;22;0,0534;0,9705;0,0956;351,0009;358,0460;156,2246;0,0534;0,9431;0,4945;20,6740;340,5885;266,1377;23;0,0439;0,9752;0,1258;339,9855;7,4555;159,5026;0,0439;0,9324;0,5214;22,4541;324,4511;254,4431;24;0,0330;0,9821;0,1446;333,6476;3,4248;160,9926;0,0330;0,9246;0,5366;16,8037;325,2029;254,7823;25;0,0222;0,9909;0,1646;333,6476;3,4248;160,9926;0,0222;0,9183;0,5544;16,8037;325,2029;254,7823
25,490810,0293;-0,0518;-0,8708;-25,75;-59,47;-5,35;0;0,0622;0,9737;0,0709;328,3687;348,3156;150,5612;0,0622;0,9805;0,4826;352,7900;342,1021;281,8297;1;0,0869;0,9352;0,0202;328,3687;348,3156;150,5612;0,0869;0,9707;0,4237;352,7900;342,1021;281,8297;2;0,0579;0,9761;0,0298;311,0878;294,9017;118,4151;0,0579;1,0017;0,4459;316,7133;307,5369;11,7229;3;0,0392;1,0004;0,0387;308,7285;345,2021;88,4208;0,0392;1,0239;0,4602;324,2278;317,7380;355,6237;4;0,0209;1,0266;0,0590;304,0887;359,6608;67,4680;0,0209;1,0435;0,4804;312,3456;305,8686;13,3345;5;0,0085;1,0467;0,0729;304,0887;359,6608;67,4680;0,0085;1,0623;0,4899;312,3456;305,8686;13,3345;6;0,0645;0,9687;0,0383;328,3687;348,3156;150,5612;0,0645;0,9929;0,4515;352,7900;342,1021;281,8297;7;0,0473;1,0004;0,0871;325,2780;2,1714;139,5136;0,0473;1,0039;0,5075;352,7923;334,9786;286,2843;8;0,0315;1,0219;0,1181;305,2331;36,1274;118,0145;0,0315;1,0087;0,5414;356,0393;325,1764;284,2265;9;0,0177;1,0416;0,1293;303,2868;62,0619;98,4177;0,0177;1,0103;0,5612;359,8350;321,7982;282,4419;10;0,0048;1,0599;0,1361;303,2868;62,0619;98,4177;0,0048;1,0103;0,5793;359,8350;321,7982;282,4419;11;0,0691;0,9598;0,0439;328,3687;348,3156;150,5612;0,0691;0,9773;0,4528;352,7900;342,1021;281,8297;12;0,0553;0,9876;0,0978;324,4919;2,3610;144,0490;0,0553;0,9838;0,5124;3,4802;330,1000;280,6331;13;0,0340;1,0124;0,1325;312,8047;15,7755;136,5050;0,0340;0,9812;0,5493;5,6478;319,4642;278,4262;14;0,0163;1,0325;0,1504;309,8182;19,6624;138,9708;0,0163;0,9785;0,5700;5,7994;317,9139;273,1189;15;0,0007;1,0509;0,1663;309,8182;19,6624;138,9708;0,0007;0,9758;0,5891;5,7994;317,9139;273,1189;16;0,0731;0,9515;0,0533;328,3687;348,3156;150,5612;0,0731;0,9594;0,4573;352,7900;342,1021;281,8297;17;0,0567;0,9789;0,0988;333,9850;354,6836;153,1841;0,0567;0,9636;0,5082;8,1488;334,6958;275,1530;18;0,0403;0,9959;0,1335;319,0810;3,5073;152,5310;0,0403;0,9581;0,5429;8,5676;324,3937;269,5546;19;0,0251;1,0132;0,1534;309,2931;5,3643;152,1639;0,0251;0,9542;0,5641;5,0388;317,9503;267,9526;20;0,0101;1,0310;0,1699;309,2931;5,3643;152,1639;0,0101;0,9517;0,5831;5,0388;317,9503;267,9526;21;0,0714;0,9503;0,0549;332,4654;6,4516;165,6892;0,0714;0,9509;0,4572;8,9186;339,9307;257,6530;22;0,0560;0,9713;0,0949;351,0050;358,2579;156,6345;0,0560;0,9438;0,4993;18,8919;343,6028;269,8109;23;0,0478;0,9760;0,1250;339,8969;7,5960;159,9262;0,0478;0,9339;0,5270;21,7175;327,8990;258,6120;24;0,0379;0,9830;0,1438;333,6309;3,4943;161,4478;0,0379;0,9265;0,5429;16,0279;328,2026;258,7967;25;0,0279;0,9917;0,1638;333,6309;3,4943;161,4478;0,0279;0,9205;0,5613;16,0279;328,2026;258,7967
25,518830,0149;-0,021;-0,8484;-24,82;-48,66;-12,26;0;0,0637;0,9738;0,0713;328,4104;348,3581;150,5973;0,0637;0,9796;0,4837;352,1153;342,3528;285,5170;1;0,0882;0,9353;0,0205;328,4104;348,3581;150,5973;0,0882;0,9694;0,4247;352,1153;342,3528;285,5170;2;0,0577;0,9762;0,0302;311,0246;295,0170;118,3090;0,0577;0,9993;0,4464;318,1571;306,0988;15,6328;3;0,0382;1,0006;0,0391;308,7440;345,4675;88,1782;0,0382;1,0209;0,4606;325,0062;316,7542;359,4059;4;0,0194;1,0268;0,0595;304,1874;0,1418;67,0626;0,0194;1,0402;0,4806;313,7578;304,0244;17,5075;5;0,0062;1,0469;0,0734;304,1874;0,1418;67,0626;0,0062;1,0586;0,4899;313,7578;304,0244;17,5075;6;0,0648;0,9688;0,0388;328,4104;348,3581;150,5973;0,0648;0,9911;0,4522;352,1153;342,3528;285,5170;7;0,0477;1,0005;0,0876;325,2527;2,2805;139,5176;0,0477;1,0029;0,5080;352,5699;335,2767;290,0187;8;0,0321;1,0220;0,1185;305,1773;36,3629;117,9064;0,0321;1,0078;0,5420;356,4391;325,7217;287,9222;9;0,0185;1,0417;0,1297;303,2506;62,4999;98,1283;0,0185;1,0093;0,5619;0,4314;322,6365;286,1004;10;0,0059;1,0601;0,1364;303,2506;62,4999;98,1283;0,0059;1,0091;0,5802;0,4314;322,6365;286,1004;11;0,0704;0,9599;0,0443;328,4104;348,3581;150,5973;0,0704;0,9758;0,4539;352,1153;342,3528;285,5170;12;0,0569;0,9877;0,0982;324,5606;2,3656;144,1151;0,0569;0,9834;0,5134;3,4555;331,1023;284,3763;13;0,0363;1,0124;0,1329;312,6308;16,0639;136,3717;0,0363;0,9808;0,5507;6,2883;320,7185;282,1343;14;0,0191;1,0326;0,1508;309,6362;19,9958;138,7975;0,0191;0,9778;0,5718;6,5298;319,2580;276,8263;15;0,0039;1,0510;0,1666;309,6362;19,9958;138,7975;0,0039;0,9748;0,5912;6,5298;319,2580;276,8263;16;0,0754;0,9516;0,0536;328,4104;348,3581;150,5973;0,0754;0,9583;0,4589;352,1153;342,3528;285,5170;17;0,0594;0,9790;0,0992;334,1289;354,6732;153,2478;0,0594;0,9632;0,5098;7,6518;335,9963;278,9338;18;0,0438;0,9960;0,1339;319,1143;3,5253;152,5927;0,0438;0,9580;0,5449;8,7419;325,8333;273,3862;19;0,0291;1,0132;0,1539;309,3220;5,3668;152,2376;0,0291;0,9540;0,5665;5,6442;319,1772;271,7146;20;0,0146;1,0310;0,1703;309,3220;5,3668;152,2376;0,0146;0,9514;0,5858;5,6442;319,1772;271,7146;21;0,0742;0,9504;0,0553;332,4954;6,4910;165,7368;0,0742;0,9497;0,4590;8,3494;341,2239;261,3683;22;0,0598;0,9714;0,0953;351,0500;358,2609;156,6962;0,0598;0,9432;0,5015;17,3212;345,5859;273,5858;23;0,0525;0,9761;0,1254;339,8868;7,6012;159,9942;0,0525;0,9341;0,5297;21,1734;330,3022;262,8062;24;0,0432;0,9831;0,1442;333,6651;3,4762;161,5244;0,0432;0,9268;0,5461;15,4721;330,1260;262,8372;25;0,0338;0,9918;0,1642;333,6651;3,4762;161,5244;0,0338;0,9211;0,5649;15,4721;330,1260;262,8372
25,5468-0,0251;0,0012;-0,8181;-26,82;-59,37;-16,77;0;0,0642;0,9740;0,0714;328,4266;348,4730;150,5657;0,0642;0,9797;0,4835;351,2406;342,6820;287,8775;1;0,0884;0,9355;0,0206;328,4266;348,4730;150,5657;0,0884;0,9688;0,4246;351,2406;342,6820;287,8775;2;0,0571;0,9764;0,0304;310,8359;295,1117;118,2383;0,0571;0,9982;0,4458;318,5732;305,9568;17,8890;3;0,0375;1,0009;0,0393;308,6601;345,7382;87,8891;0,0375;1,0196;0,4600;324,9602;316,8947;1,5149;4;0,0187;1,0271;0,0597;304,1699;0,5492;66,6565;0,0187;1,0389;0,4801;314,0887;303,6105;19,9542;5;0,0054;1,0472;0,0736;304,1699;0,5492;66,6565;0,0054;1,0573;0,4893;314,0887;303,6105;19,9542;6;0,0646;0,9690;0,0389;328,4266;348,4730;150,5657;0,0646;0,9904;0,4518;351,2406;342,6820;287,8775;7;0,0478;1,0007;0,0878;325,2447;2,3817;139,4940;0,0478;1,0031;0,5075;352,0226;335,5628;292,4756;8;0,0323;1,0222;0,1187;305,2530;36,2462;118,0619;0,0323;1,0083;0,5415;356,3027;326,1716;290,4193;9;0,0189;1,0419;0,1300;303,2820;62,3014;98,3658;0,0189;1,0099;0,5615;0,4107;323,3070;288,5956;10;0,0065;1,0602;0,1366;303,2820;62,3014;98,3658;0,0065;1,0098;0,5799;0,4107;323,3070;288,5956;11;0,0707;0,9601;0,0445;328,4266;348,4730;150,5657;0,0707;0,9754;0,4538;351,2406;342,6820;287,8775;12;0,0577;0,9879;0,0984;324,6270;2,4388;144,1116;0,0577;0,9841;0,5133;3,0021;331,8053;286,8488;13;0,0375;1,0126;0,1331;312,6169;16,2324;136,3092;0,0375;0,9819;0,5508;6,2776;321,5847;284,6623;14;0,0206;1,0327;0,1509;309,6015;20,2030;138,7077;0,0206;0,9789;0,5721;6,5736;320,1926;279,3670;15;0,0057;1,0512;0,1667;309,6015;20,2030;138,7077;0,0057;0,9759;0,5918;6,5736;320,1926;279,3670;16;0,0764;0,9518;0,0538;328,4266;348,4730;150,5657;0,0764;0,9582;0,4592;351,2406;342,6820;287,8775;17;0,0608;0,9792;0,0994;334,2487;354,7498;153,2339;0,0608;0,9639;0,5102;6,9673;336,7597;281,3551;18;0,0456;0,9961;0,1341;319,1423;3,6538;152,5617;0,0456;0,9592;0,5455;8,4929;326,6415;275,8951;19;0,0313;1,0133;0,1540;309,3339;5,5165;152,1927;0,0313;0,9553;0,5673;5,6893;319,8279;274,2145;20;0,0170;1,0311;0,1705;309,3339;5,5165;152,1927;0,0170;0,9528;0,5868;5,6893;319,8279;274,2145;21;0,0755;0,9506;0,0554;332,5192;6,6000;165,7136;0,0755;0,9496;0,4595;7,5072;342,2218;263,7385;22;0,0618;0,9716;0,0954;351,0655;358,3469;156,6809;0,0618;0,9437;0,5024;16,1138;346,8525;275,9163;23;0,0551;0,9763;0,1255;339,8588;7,7071;159,9772;0,0551;0,9352;0,5309;20,5903;331,8280;265,4447;24;0,0462;0,9833;0,1443;333,6644;3,5725;161,5121;0,0462;0,9281;0,5476;14,8989;331,3358;265,3812;25;0,0371;0,9920;0,1643;333,6644;3,5725;161,5121;0,0371;0,9226;0,5667;14,8989;331,3358;265,3812
